"Time (s)","Acceleration x (m/s^2)","Acceleration y (m/s^2)","Acceleration z (m/s^2)","Absolute acceleration (m/s^2)"
3.673920400E-2,2.260500044E-1,-9.000000544E-3,9.490950584E0,9.493646433E0
3.920722800E-2,2.639999986E-1,-2.805000171E-2,9.471000671E0,9.474720920E0
4.167528100E-2,2.639999986E-1,-9.000000544E-3,9.490950584E0,9.494625848E0
4.414451800E-2,3.019500077E-1,-2.805000171E-2,9.471000671E0,9.475854280E0
4.661374300E-2,2.830500007E-1,-9.000000544E-3,9.490950584E0,9.495174632E0
4.908356400E-2,3.019500077E-1,-2.805000171E-2,9.471000671E0,9.475854280E0
5.155337300E-2,2.830500007E-1,-9.000000544E-3,9.490950584E0,9.495174632E0
5.402044800E-2,3.019500077E-1,-2.805000171E-2,9.471000671E0,9.475854280E0
5.648752700E-2,2.830500007E-1,-9.000000544E-3,9.490950584E0,9.495174632E0
5.895583500E-2,3.019500077E-1,-2.805000171E-2,9.471000671E0,9.475854280E0
6.142414200E-2,2.830500007E-1,-9.000000544E-3,9.490950584E0,9.495174632E0
6.389183800E-2,3.019500077E-1,-2.805000171E-2,9.471000671E0,9.475854280E0
6.635953100E-2,2.830500007E-1,-9.000000544E-3,9.490950584E0,9.495174632E0
6.882818600E-2,3.019500077E-1,-2.805000171E-2,9.471000671E0,9.475854280E0
7.129683900E-2,2.830500007E-1,-9.000000544E-3,9.490950584E0,9.495174632E0
7.376464600E-2,2.830500007E-1,-2.805000171E-2,9.471000671E0,9.475270857E0
7.623245500E-2,2.639999986E-1,-9.000000544E-3,9.490950584E0,9.494625848E0
7.869911700E-2,3.019500077E-1,-2.805000171E-2,9.471000671E0,9.475854280E0
8.116577200E-2,2.830500007E-1,-2.805000171E-2,9.490950584E0,9.495211799E0
8.363131000E-2,2.830500007E-1,-4.695000127E-2,9.471000671E0,9.475345657E0
8.609684900E-2,2.639999986E-1,-2.805000171E-2,9.490950584E0,9.494663017E0
8.856404200E-2,3.019500077E-1,-4.695000127E-2,9.471000671E0,9.475929075E0
9.103123300E-2,2.830500007E-1,-2.805000171E-2,9.490950584E0,9.495211799E0
9.349974300E-2,3.019500077E-1,-4.695000127E-2,9.471000671E0,9.475929075E0
9.596824400E-2,2.830500007E-1,-2.805000171E-2,9.490950584E0,9.495211799E0
9.843697300E-2,2.830500007E-1,-4.695000127E-2,9.471000671E0,9.475345657E0
1.009057040E-1,2.639999986E-1,-2.805000171E-2,9.490950584E0,9.494663017E0
1.033735880E-1,2.639999986E-1,-4.695000127E-2,9.471000671E0,9.474795724E0
1.058414730E-1,2.449500114E-1,-2.805000171E-2,9.490950584E0,9.494152427E0
1.083086700E-1,2.639999986E-1,-4.695000127E-2,9.471000671E0,9.474795724E0
1.107758630E-1,2.449500114E-1,-2.805000171E-2,9.490950584E0,9.494152427E0
1.132427860E-1,2.639999986E-1,-4.695000127E-2,9.471000671E0,9.474795724E0
1.157097090E-1,2.449500114E-1,-2.805000171E-2,9.490950584E0,9.494152427E0
1.181779020E-1,2.639999986E-1,-4.695000127E-2,9.471000671E0,9.474795724E0
1.206460930E-1,2.449500114E-1,-2.805000171E-2,9.490950584E0,9.494152427E0
1.231163680E-1,2.830500007E-1,-4.695000127E-2,9.471000671E0,9.475345657E0
1.255866370E-1,2.639999986E-1,-2.805000171E-2,9.490950584E0,9.494663017E0
1.280557120E-1,3.019500077E-1,-4.695000127E-2,9.471000671E0,9.475929075E0
1.305247910E-1,2.830500007E-1,-2.805000171E-2,9.490950584E0,9.495211799E0
1.329955610E-1,2.830500007E-1,-4.695000127E-2,9.471000671E0,9.475345657E0
1.354663300E-1,2.639999986E-1,-2.805000171E-2,9.490950584E0,9.494663017E0
1.379361690E-1,2.639999986E-1,-4.695000127E-2,9.471000671E0,9.474795724E0
1.404060160E-1,2.449500114E-1,-2.805000171E-2,9.490950584E0,9.494152427E0
1.428748240E-1,2.639999986E-1,-4.695000127E-2,9.471000671E0,9.474795724E0
1.453436310E-1,2.449500114E-1,-2.805000171E-2,9.490950584E0,9.494152427E0
1.478130170E-1,2.830500007E-1,-4.695000127E-2,9.471000671E0,9.475345657E0
1.502824020E-1,2.639999986E-1,-2.805000171E-2,9.490950584E0,9.494663017E0
1.527524300E-1,3.019500077E-1,-4.695000127E-2,9.471000671E0,9.475929075E0
1.552224310E-1,2.830500007E-1,-2.805000171E-2,9.490950584E0,9.495211799E0
1.576918140E-1,3.019500077E-1,-4.695000127E-2,9.471000671E0,9.475929075E0
1.601611990E-1,2.830500007E-1,-2.805000171E-2,9.490950584E0,9.495211799E0
1.626301230E-1,3.019500077E-1,-4.695000127E-2,9.471000671E0,9.475929075E0
1.650990460E-1,2.830500007E-1,-2.805000171E-2,9.490950584E0,9.495211799E0
1.675681420E-1,2.830500007E-1,-4.695000127E-2,9.471000671E0,9.475345657E0
1.700372190E-1,2.639999986E-1,-2.805000171E-2,9.490950584E0,9.494663017E0
1.725074880E-1,2.639999986E-1,-4.695000127E-2,9.471000671E0,9.474795724E0
1.749777570E-1,2.449500114E-1,-2.805000171E-2,9.490950584E0,9.494152427E0
1.774480640E-1,2.830500007E-1,-4.695000127E-2,9.471000671E0,9.475345657E0
1.799183730E-1,2.639999986E-1,-2.805000171E-2,9.490950584E0,9.494663017E0
1.823875000E-1,2.639999986E-1,-4.695000127E-2,9.471000671E0,9.474795724E0
1.848566170E-1,2.449500114E-1,-2.805000171E-2,9.490950584E0,9.494152427E0
1.873278490E-1,2.830500007E-1,-4.695000127E-2,9.471000671E0,9.475345657E0
1.897990780E-1,2.639999986E-1,-2.805000171E-2,9.490950584E0,9.494663017E0
1.922678080E-1,2.639999986E-1,-4.695000127E-2,9.471000671E0,9.474795724E0
1.947365410E-1,2.449500114E-1,-2.805000171E-2,9.490950584E0,9.494152427E0
1.972059550E-1,2.639999986E-1,-4.695000127E-2,9.451950073E0,9.455752772E0
1.996753380E-1,2.449500114E-1,-2.805000171E-2,9.471000671E0,9.474209256E0
2.021428750E-1,2.639999986E-1,-4.695000127E-2,9.451950073E0,9.455752772E0
2.046104160E-1,2.449500114E-1,-2.805000171E-2,9.471000671E0,9.474209256E0
2.070795320E-1,2.639999986E-1,-4.695000127E-2,9.451950073E0,9.455752772E0
2.095486470E-1,2.449500114E-1,-2.805000171E-2,9.471000671E0,9.474209256E0
2.120171310E-1,2.639999986E-1,-4.695000127E-2,9.433050156E0,9.436860471E0
2.144855940E-1,2.260500044E-1,-2.805000171E-2,9.451950073E0,9.454694368E0
2.169550940E-1,2.449500114E-1,-4.695000127E-2,9.433050156E0,9.436346753E0
2.194245930E-1,2.260500044E-1,-2.805000171E-2,9.451950073E0,9.454694368E0
2.218944390E-1,2.449500114E-1,-4.695000127E-2,9.433050156E0,9.436346753E0
2.243642860E-1,2.260500044E-1,-2.805000171E-2,9.451950073E0,9.454694368E0
2.268322550E-1,2.449500114E-1,-4.695000127E-2,9.433050156E0,9.436346753E0
2.293002560E-1,2.260500044E-1,-2.805000171E-2,9.451950073E0,9.454694368E0
2.317678340E-1,2.449500114E-1,-4.695000127E-2,9.433050156E0,9.436346753E0
2.342354110E-1,2.260500044E-1,-2.805000171E-2,9.451950073E0,9.454694368E0
2.367032570E-1,2.449500114E-1,-4.695000127E-2,9.433050156E0,9.436346753E0
2.391711020E-1,2.260500044E-1,-2.805000171E-2,9.451950073E0,9.454694368E0
2.416393910E-1,2.449500114E-1,-4.695000127E-2,9.433050156E0,9.436346753E0
2.441077000E-1,2.260500044E-1,-9.000000544E-3,9.451950073E0,9.454657043E0
2.465756600E-1,2.449500114E-1,-9.000000544E-3,9.433050156E0,9.436234246E0
2.490436230E-1,2.260500044E-1,2.805000171E-2,9.451950073E0,9.454694368E0
2.515111990E-1,2.449500114E-1,9.000000544E-3,9.433050156E0,9.436234246E0
2.539787760E-1,2.260500044E-1,2.805000171E-2,9.451950073E0,9.454694368E0
2.564478390E-1,2.449500114E-1,9.000000544E-3,9.433050156E0,9.436234246E0
2.589169160E-1,2.260500044E-1,2.805000171E-2,9.451950073E0,9.454694368E0
2.613869150E-1,2.449500114E-1,9.000000544E-3,9.433050156E0,9.436234246E0
2.638569160E-1,2.260500044E-1,2.805000171E-2,9.451950073E0,9.454694368E0
2.663247600E-1,2.449500114E-1,9.000000544E-3,9.433050156E0,9.436234246E0
2.687926090E-1,2.260500044E-1,2.805000171E-2,9.451950073E0,9.454694368E0
2.712616430E-1,2.449500114E-1,9.000000544E-3,9.433050156E0,9.436234246E0
2.737306800E-1,2.260500044E-1,2.805000171E-2,9.451950073E0,9.454694368E0
2.762000640E-1,2.449500114E-1,9.000000544E-3,9.433050156E0,9.436234246E0
2.786694490E-1,2.260500044E-1,9.000000544E-3,9.451950073E0,9.454657043E0
2.811385640E-1,2.449500114E-1,-9.000000544E-3,9.433050156E0,9.436234246E0
2.836076810E-1,2.260500044E-1,9.000000544E-3,9.451950073E0,9.454657043E0
2.860761270E-1,2.449500114E-1,-9.000000544E-3,9.433050156E0,9.436234246E0
2.885445880E-1,2.260500044E-1,9.000000544E-3,9.451950073E0,9.454657043E0
2.910127040E-1,2.639999986E-1,-9.000000544E-3,9.433050156E0,9.436747969E0
2.934808190E-1,2.449500114E-1,9.000000544E-3,9.451950073E0,9.455127799E0
2.959534750E-1,2.830500007E-1,-9.000000544E-3,9.433050156E0,9.437300119E0
2.984261260E-1,2.639999986E-1,9.000000544E-3,9.451950073E0,9.455640496E0
3.008951910E-1,3.019500077E-1,-9.000000544E-3,9.433050156E0,9.437885889E0
3.033642700E-1,2.830500007E-1,9.000000544E-3,9.451950073E0,9.456191543E0
3.058333100E-1,3.019500077E-1,-9.000000544E-3,9.433050156E0,9.437885889E0
3.083023470E-1,2.830500007E-1,9.000000544E-3,9.451950073E0,9.456191543E0
3.107722320E-1,3.019500077E-1,-9.000000544E-3,9.433050156E0,9.437885889E0
3.132421170E-1,2.830500007E-1,9.000000544E-3,9.451950073E0,9.456191543E0
3.157097690E-1,3.019500077E-1,-9.000000544E-3,9.433050156E0,9.437885889E0
3.181774240E-1,2.830500007E-1,9.000000544E-3,9.451950073E0,9.456191543E0
3.206477720E-1,3.019500077E-1,-9.000000544E-3,9.433050156E0,9.437885889E0
3.231181170E-1,2.830500007E-1,9.000000544E-3,9.451950073E0,9.456191543E0
3.255874620E-1,3.019500077E-1,-9.000000544E-3,9.433050156E0,9.437885889E0
3.280568090E-1,2.830500007E-1,9.000000544E-3,9.451950073E0,9.456191543E0
3.305237700E-1,2.830500007E-1,-9.000000544E-3,9.433050156E0,9.437300119E0
3.329907330E-1,2.639999986E-1,9.000000544E-3,9.451950073E0,9.455640496E0
3.354562320E-1,3.019500077E-1,-9.000000544E-3,9.433050156E0,9.437885889E0
3.379217330E-1,2.830500007E-1,9.000000544E-3,9.451950073E0,9.456191543E0
3.403877330E-1,3.019500077E-1,-9.000000544E-3,9.433050156E0,9.437885889E0
3.428537320E-1,2.830500007E-1,9.000000544E-3,9.451950073E0,9.456191543E0
3.453206940E-1,3.019500077E-1,-9.000000544E-3,9.433050156E0,9.437885889E0
3.477876550E-1,2.830500007E-1,9.000000544E-3,9.451950073E0,9.456191543E0
3.502548850E-1,3.019500077E-1,-9.000000544E-3,9.433050156E0,9.437885889E0
3.527221160E-1,2.830500007E-1,9.000000544E-3,9.451950073E0,9.456191543E0
3.551902700E-1,2.830500007E-1,-9.000000544E-3,9.433050156E0,9.437300119E0
3.576584250E-1,2.639999986E-1,9.000000544E-3,9.451950073E0,9.455640496E0
3.601278090E-1,2.639999986E-1,-9.000000544E-3,9.433050156E0,9.436747969E0
3.625971940E-1,2.449500114E-1,9.000000544E-3,9.451950073E0,9.455127799E0
3.650663850E-1,2.639999986E-1,-9.000000544E-3,9.433050156E0,9.436747969E0
3.675355780E-1,2.449500114E-1,9.000000544E-3,9.451950073E0,9.455127799E0
3.700035780E-1,2.639999986E-1,-9.000000544E-3,9.433050156E0,9.436747969E0
3.724715790E-1,2.449500114E-1,9.000000544E-3,9.451950073E0,9.455127799E0
3.749396070E-1,2.830500007E-1,-9.000000544E-3,9.433050156E0,9.437300119E0
3.774076460E-1,2.830500007E-1,9.000000544E-3,9.433050156E0,9.437300119E0
3.798765290E-1,3.019500077E-1,-9.000000544E-3,9.376049995E0,9.380915111E0
3.823454140E-1,3.019500077E-1,9.000000544E-3,9.337050438E0,9.341935864E0
3.848146450E-1,3.210000098E-1,-9.000000544E-3,9.298950195E0,9.304493363E0
3.872838760E-1,3.019500077E-1,9.000000544E-3,9.337050438E0,9.341935864E0
3.897525290E-1,3.210000098E-1,-9.000000544E-3,9.355950356E0,9.361459772E0
3.922211840E-1,3.400500119E-1,9.000000544E-3,9.376049995E0,9.382218742E0
3.946924160E-1,1.048950076E0,-9.000000544E-3,8.763000488E0,8.825562578E0
3.971636450E-1,9.919500351E-1,9.000000544E-3,8.782050133E0,8.837898529E0
3.996328740E-1,4.360500276E-1,-9.000000544E-3,9.567000389E0,9.576936727E0
4.021021070E-1,3.979500234E-1,9.000000544E-3,1.021800041E1,1.022575071E1
4.045719540E-1,3.979500234E-1,-9.000000544E-3,1.019895077E1,1.020671553E1
4.070417990E-1,3.790500164E-1,9.000000544E-3,1.019895077E1,1.020599611E1
4.095097980E-1,3.979500234E-1,-9.000000544E-3,9.625050545E0,9.633277906E0
4.119777990E-1,3.600000143E-1,9.000000544E-3,9.663000107E0,9.669707962E0
4.144451460E-1,-1.759500057E-1,-9.000000544E-3,1.031400013E1,1.031550474E1
4.169124910E-1,-1.759500057E-1,9.000000544E-3,1.033305073E1,1.033455257E1
4.193815790E-1,4.360500276E-1,-9.000000544E-3,1.027605057E1,1.028530194E1
4.218506560E-1,4.170000255E-1,9.000000544E-3,9.376049995E0,9.385322772E0
4.243202320E-1,4.360500276E-1,-9.000000544E-3,9.318000793E0,9.328202368E0
4.267898090E-1,4.170000255E-1,9.000000544E-3,9.298950195E0,9.308299778E0
4.292594630E-1,4.360500276E-1,-9.000000544E-3,9.280050278E0,9.290293525E0
4.317291180E-1,4.170000255E-1,9.000000544E-3,9.298950195E0,9.308299778E0
4.341992890E-1,4.360500276E-1,-9.000000544E-3,9.298950195E0,9.309172646E0
4.366694820E-1,4.549500346E-1,9.000000544E-3,9.355950356E0,9.367009533E0
4.391364030E-1,1.048950076E0,-9.000000544E-3,9.892950058E0,9.948408823E0
4.416033280E-1,1.048950076E0,9.000000544E-3,9.931050301E0,9.986297479E0
4.440691360E-1,1.662000060E0,-9.000000544E-3,9.949950218E0,1.008780623E1
4.465349430E-1,1.699950099E0,9.000000544E-3,1.002705002E1,1.017013488E1
4.490044700E-1,2.581050158E0,-9.000000544E-3,1.004595089E1,1.037222398E1
4.514740070E-1,3.252000093E0,9.000000544E-3,1.010295010E1,1.061344366E1
4.539415810E-1,3.328950167E0,-9.000000544E-3,1.012305069E1,1.065636643E1
4.564091600E-1,4.554000378E0,9.000000544E-3,1.018005085E1,1.115223905E1
4.588781990E-1,5.340000153E0,-2.805000171E-2,1.018005085E1,1.149564369E1
4.613472360E-1,5.359050274E0,-9.000000544E-3,1.019895077E1,1.152120209E1
4.638150860E-1,6.259050369E0,-2.805000171E-2,1.018005085E1,1.195031103E1
4.662829350E-1,6.259050369E0,-9.000000544E-3,1.019895077E1,1.196638581E1
4.687503190E-1,6.297000408E0,-2.805000171E-2,1.016100025E1,1.195403392E1
4.712177040E-1,6.297000408E0,-9.000000544E-3,1.016100025E1,1.195400440E1
4.736852810E-1,6.316950321E0,-2.805000171E-2,1.010295010E1,1.191529474E1
4.761528580E-1,6.259050369E0,-9.000000544E-3,1.008405018E1,1.186860820E1
4.786199140E-1,5.340000153E0,-2.805000171E-2,1.002705002E1,1.136037502E1
4.810869530E-1,5.263050079E0,-9.000000544E-3,1.000800037E1,1.130751293E1
4.835542230E-1,4.114050388E0,-2.805000171E-2,9.931050301E0,1.074950964E1
4.860214920E-1,3.252000093E0,-9.000000544E-3,9.337050438E0,9.887168274E0
4.884905300E-1,2.275050163E0,-2.805000171E-2,9.318000793E0,9.591755774E0
4.909595690E-1,1.471050024E0,-9.000000544E-3,9.318000793E0,9.433409138E0
4.934280380E-1,4.360500276E-1,-2.805000171E-2,9.280050278E0,9.290331511E0
4.958965010E-1,-6.160500050E-1,-9.000000544E-3,9.261000633E0,9.281472477E0
4.983650010E-1,-1.708050132E0,-2.805000171E-2,9.222000122E0,9.378886304E0
5.008335000E-1,-2.532000065E0,-9.000000544E-3,9.222000122E0,9.563283515E0
5.033005760E-1,-3.240000248E0,-2.805000171E-2,9.184050560E0,9.738848654E0
5.057676550E-1,-4.141050339E0,-9.000000544E-3,9.202950478E0,1.009171325E1
5.082336540E-1,-4.773000240E0,-2.805000171E-2,9.184050560E0,1.035031897E1
5.106996550E-1,-4.810950279E0,-9.000000544E-3,9.222000122E0,1.040147152E1
5.131666940E-1,-4.810950279E0,-2.805000171E-2,9.241950035E0,1.041919718E1
5.156337310E-1,-4.849050045E0,-9.000000544E-3,9.318000793E0,1.050421373E1
5.181031160E-1,-4.792050362E0,-2.805000171E-2,9.853950500E0,1.095741183E1
5.205725010E-1,-3.987000227E0,9.000000544E-3,9.874050140E0,1.064862047E1
5.230411350E-1,-3.240000248E0,9.000000544E-3,9.892950058E0,1.041000209E1
5.255097520E-1,-2.377950191E0,4.695000127E-2,9.969000816E0,1.024879645E1
5.279771740E-1,-1.402050018E0,4.695000127E-2,1.063995075E1,1.073203152E1
5.304445970E-1,-6.930000186E-1,8.595000207E-2,1.067805004E1,1.070085927E1
5.329168690E-1,1.300500035E-1,8.595000207E-2,1.069695091E1,1.069808671E1
5.353891360E-1,7.999500632E-1,1.429500133E-1,1.077405071E1,1.080465287E1
5.378565120E-1,8.770500422E-1,1.620000005E-1,1.140600014E1,1.144081727E1
5.403239010E-1,1.585050106E0,2.010000050E-1,1.144395065E1,1.155494662E1
5.427932870E-1,1.605000019E0,2.200500071E-1,1.144395065E1,1.155804714E1
5.452626700E-1,1.624050021E0,2.770500183E-1,1.150200081E1,1.161939404E1
5.477317460E-1,1.681050062E0,2.959500253E-1,1.152105045E1,1.164680726E1
5.502008230E-1,1.681050062E0,3.540000021E-1,1.157805061E1,1.170480676E1
5.526689810E-1,1.699950099E0,3.540000021E-1,1.159695053E1,1.172622735E1
5.551371360E-1,1.662000060E0,3.919500113E-1,1.165500069E1,1.177942741E1
5.576040580E-1,1.642950058E0,3.919500113E-1,1.167405033E1,1.179560769E1
5.600709810E-1,1.011000037E0,4.309500158E-1,1.173195076E1,1.178331480E1
5.625371740E-1,1.011000037E0,4.110000134E-1,1.175100040E1,1.180156992E1
5.650033670E-1,4.170000255E-1,4.309500158E-1,1.180800056E1,1.182321802E1
5.674725650E-1,3.979500234E-1,4.110000134E-1,1.182705021E1,1.184087843E1
5.699417560E-1,3.400500119E-1,4.309500158E-1,1.188495064E1,1.189762176E1
5.724094470E-1,3.019500077E-1,4.110000134E-1,1.188495064E1,1.189588780E1
5.748771400E-1,2.449500114E-1,4.309500158E-1,1.190400028E1,1.191431665E1
5.773479110E-1,2.639999986E-1,4.110000134E-1,1.188495064E1,1.189498502E1
5.798186780E-1,2.260500044E-1,4.309500158E-1,1.186605072E1,1.187602527E1
5.822879470E-1,2.449500114E-1,4.110000134E-1,1.123395061E1,1.124413482E1
5.847572180E-1,2.449500114E-1,4.309500158E-1,1.121400070E1,1.122495123E1
5.872286030E-1,2.830500007E-1,4.110000134E-1,1.052505016E1,1.053687426E1
5.896999860E-1,3.019500077E-1,4.309500158E-1,1.050600052E1,1.051917005E1
5.921688690E-1,3.600000143E-1,3.919500113E-1,9.816000938E0,9.830417043E0
5.946377560E-1,1.011000037E0,3.919500113E-1,9.816000938E0,9.875708598E0
5.971065690E-1,1.030050039E0,3.540000021E-1,9.759000778E0,9.819593437E0
5.995753760E-1,1.048950076E0,3.540000021E-1,9.739950180E0,9.802665034E0
6.020438000E-1,1.662000060E0,3.160500228E-1,9.682050705E0,9.828745478E0
6.045122230E-1,1.662000060E0,2.959500253E-1,9.682050705E0,9.828119681E0
6.069799140E-1,1.699950099E0,2.580000162E-1,9.663000107E0,9.814783004E0
6.094476070E-1,1.738950133E0,2.580000162E-1,9.682050705E0,9.840356570E0
6.119185840E-1,1.815000057E0,2.389500141E-1,9.700950623E0,9.872171256E0
6.143895450E-1,1.834050059E0,2.580000162E-1,1.031400013E1,1.047897430E1
6.168605820E-1,1.891950130E0,2.580000162E-1,1.031400013E1,1.048926299E1
6.193316210E-1,1.911000133E0,3.160500228E-1,1.039095020E1,1.056994112E1
6.217976180E-1,1.930050135E0,3.540000021E-1,1.104195023E1,1.121494870E1
6.242636210E-1,1.911000133E0,1.138950109E0,1.109895039E1,1.131970974E1
6.267314940E-1,1.911000133E0,1.138950109E0,1.165500069E1,1.186541908E1
6.291993770E-1,1.854000092E0,1.216050029E0,1.171200085E1,1.192002759E1
6.316696460E-1,1.815000057E0,2.001000166E0,1.230600071E1,1.259904283E1
6.341399150E-1,1.011000037E0,2.059050083E0,1.236405087E1,1.257503726E1
6.366093370E-1,1.011000037E0,2.632950068E0,1.295700073E1,1.326040780E1
6.390787600E-1,9.529500604E-1,2.691000223E0,1.299600029E1,1.330584907E1
6.415474860E-1,9.150000215E-1,2.728950024E0,1.301505089E1,1.332951398E1
6.440162170E-1,1.870500147E-1,3.534000158E0,1.359000111E1,1.404322879E1
6.464839480E-1,2.059500068E-1,3.553050280E0,1.357005024E1,1.402900015E1
6.489516790E-1,1.489500105E-1,4.165950298E0,1.360905075E1,1.423318623E1
6.514196790E-1,-4.819500148E-1,4.165950298E0,1.360905075E1,1.424056460E1
6.538876800E-1,-5.010000467E-1,4.222949982E0,1.362795067E1,1.427604101E1
6.563548800E-1,-5.209500194E-1,4.855050087E0,1.360905075E1,1.445853252E1
6.588221110E-1,-5.779500008E-1,4.893000126E0,1.362795067E1,1.449125653E1
6.612902280E-1,-6.160500050E-1,4.912950039E0,1.360905075E1,1.448181128E1
6.637583430E-1,-1.324950099E0,4.969950199E0,1.362795067E1,1.456629456E1
6.662277660E-1,-1.306050062E0,5.008050442E0,1.360905075E1,1.455996560E1
6.686971890E-1,-1.344000101E0,5.583000183E0,1.362795067E1,1.478841664E1
6.711690350E-1,-1.363050103E0,5.583000183E0,1.359000111E1,1.475519999E1
6.736408800E-1,-1.381950021E0,5.620950222E0,1.359000111E1,1.477135733E1
6.761109940E-1,-1.363050103E0,5.620950222E0,1.355100060E1,1.473372336E1
6.785811110E-1,-1.363050103E0,5.679000378E0,1.357005024E1,1.477346318E1
6.810503810E-1,-7.890000343E-1,5.698050499E0,1.355100060E1,1.472141018E1
6.835196500E-1,-7.699500322E-1,5.755050182E0,1.357005024E1,1.476007077E1
6.859877990E-1,1.300500035E-1,5.794050217E0,1.355100060E1,1.473830207E1
6.884559520E-1,1.489500105E-1,5.869950294E0,1.357005024E1,1.478596517E1
6.909246840E-1,7.429500222E-1,5.908950329E0,1.355100060E1,1.480193521E1
6.933934150E-1,7.620000243E-1,5.985000134E0,1.355100060E1,1.483342468E1
6.958632600E-1,1.356000066E0,6.024000168E0,1.347495079E1,1.482233494E1
6.983331070E-1,1.375050068E0,6.081000328E0,1.272795105E1,1.417286371E1
7.007992680E-1,1.969050050E0,6.100050449E0,1.267005062E1,1.419922379E1
7.032654250E-1,1.948950052E0,6.157950401E0,1.188495064E1,1.352667036E1
7.057317710E-1,2.007000208E0,6.177000523E0,1.180800056E1,1.347635940E1
7.081981160E-1,2.007000208E0,6.234000206E0,1.073595047E1,1.257582764E1
7.106680790E-1,2.044950008E0,6.234000206E0,1.014195061E1,1.207906210E1
7.131380400E-1,2.044950008E0,6.273000240E0,9.547950745E0,1.160584835E1
7.156057110E-1,2.083050013E0,6.273000240E0,8.935050011E0,1.111416880E1
7.180734060E-1,2.064000130E0,6.310950279E0,8.359950066E0,1.067599902E1
7.205409440E-1,2.083050013E0,6.310950279E0,7.728000164E0,1.019260405E1
7.230084830E-1,2.044950008E0,6.349050522E0,7.173000336E0,9.795110866E0
7.254752900E-1,2.026050091E0,6.367950439E0,6.598050117E0,9.390949746E0
7.279420970E-1,1.948950052E0,6.426000118E0,6.579000473E0,9.400804809E0
7.304093240E-1,1.356000066E0,7.000050545E0,5.716950417E0,9.139089992E0
7.328765550E-1,1.336050034E0,7.039050102E0,5.716950417E0,9.166066665E0
7.353445540E-1,1.317000031E0,7.077000141E0,5.640000343E0,9.144835917E0
7.378125550E-1,1.297950029E0,7.786050320E0,5.065950394E0,9.379291404E0
7.402790140E-1,1.317000031E0,7.786050320E0,5.047050476E0,9.371754754E0
7.427454770E-1,1.279050112E0,7.843050480E0,5.047050476E0,9.413932681E0
7.452102270E-1,1.297950029E0,8.455950737E0,5.008050442E0,9.913039210E0
7.476749960E-1,1.279050112E0,8.494050026E0,5.028000355E0,9.953172489E0
7.501422290E-1,1.297950029E0,8.494050026E0,5.008050442E0,9.945558272E0
7.526094580E-1,1.279050112E0,8.513999939E0,5.008050442E0,9.960157297E0
7.550763420E-1,1.297950029E0,8.494050026E0,4.969950199E0,9.926427610E0
7.575432270E-1,1.279050112E0,8.494050026E0,4.969950199E0,9.923974003E0
7.600095070E-1,1.297950029E0,8.437050819E0,4.932000160E0,9.858657433E0
7.624758140E-1,1.279050112E0,7.747050285E0,4.932000160E0,9.272398983E0
7.649448920E-1,1.279050112E0,7.690050602E0,4.893000126E0,9.204037032E0
7.674139670E-1,1.240950108E0,7.039050102E0,4.893000126E0,8.661964774E0
7.698795040E-1,1.240950108E0,6.981000423E0,4.855050087E0,8.593359962E0
7.723450450E-1,1.201950073E0,6.292050362E0,4.873950005E0,8.049221725E0
7.748124790E-1,1.201950073E0,6.234000206E0,4.855050087E0,7.992431038E0
7.772799000E-1,1.144950032E0,5.640000343E0,4.912950039E0,7.566874687E0
7.797481700E-1,1.126049995E0,5.602050304E0,4.951050282E0,7.560678217E0
7.822164390E-1,1.068000078E0,5.563950062E0,5.679000378E0,8.021795918E0
7.846847850E-1,1.048950076E0,4.932000160E0,5.698050499E0,7.608725342E0
7.871531320E-1,9.730500579E-1,4.932000160E0,6.426000118E0,8.158733328E0
7.896195620E-1,4.360500276E-1,4.893000126E0,6.445050240E0,8.103719050E0
7.920860250E-1,4.170000255E-1,4.893000126E0,7.192050457E0,8.708669762E0
7.945535260E-1,4.750500321E-1,4.855050087E0,7.210950375E0,8.706031770E0
7.970210250E-1,4.750500321E-1,4.855050087E0,7.957950592E0,9.334139570E0
7.994884480E-1,1.048950076E0,4.798050404E0,7.957950592E0,9.351500498E0
8.019558730E-1,1.030050039E0,4.779000282E0,8.016000748E0,9.389148778E0
8.044244840E-1,1.087050080E0,4.702050209E0,8.035050392E0,9.372992524E0
8.068930990E-1,1.087050080E0,4.146000385E0,8.072999954E0,9.140258494E0
8.093622910E-1,1.126049995E0,4.108050346E0,8.053950310E0,9.110992363E0
8.118314840E-1,1.126049995E0,4.069950104E0,8.053950310E0,9.093876953E0
8.142994820E-1,1.164000034E0,3.361050129E0,7.977000237E0,8.734076186E0
8.167674830E-1,1.144950032E0,3.361050129E0,7.363950253E0,8.175287877E0
8.192343720E-1,1.164000034E0,2.785950184E0,7.326000214E0,7.923805502E0
8.217012950E-1,1.106999993E0,2.785950184E0,7.306950569E0,7.898005700E0
8.241685650E-1,1.087050080E0,2.728950024E0,7.230000496E0,7.803957540E0
8.266358340E-1,1.011000037E0,2.077950001E0,6.694050312E0,7.081688136E0
8.291044110E-1,4.360500276E-1,2.038950205E0,6.675000191E0,6.993074082E0
8.315729880E-1,4.170000255E-1,2.020050049E0,6.675000191E0,6.986423890E0
8.340434780E-1,3.979500234E-1,1.944000125E0,6.637050152E0,6.927332490E0
8.365139770E-1,3.600000143E-1,1.350000024E0,6.616950512E0,6.762849559E0
8.389815140E-1,3.600000143E-1,1.330950022E0,6.579000473E0,6.721924962E0
8.414490550E-1,3.210000098E-1,1.330950022E0,6.579000473E0,6.719949121E0
8.439162860E-1,3.210000098E-1,1.291950107E0,6.541050434E0,6.675141711E0
8.463835170E-1,2.830500007E-1,1.291950107E0,6.541050434E0,6.673424396E0
8.488506900E-1,2.830500007E-1,1.234950066E0,6.502050400E0,6.624339844E0
8.513178830E-1,2.449500114E-1,1.216050029E0,6.522000313E0,6.638920564E0
8.537864980E-1,2.639999986E-1,1.158000112E0,6.502050400E0,6.609638391E0
8.562551130E-1,2.260500044E-1,1.138950109E0,6.522000313E0,6.624559913E0
8.587256130E-1,2.449500114E-1,1.081950068E0,6.502050400E0,6.596004538E0
8.611961120E-1,2.260500044E-1,1.063050032E0,6.522000313E0,6.611933307E0
8.636622150E-1,2.449500114E-1,9.859500527E-1,6.502050400E0,6.580938946E0
8.661283340E-1,2.260500044E-1,4.500000179E-1,6.522000313E0,6.541413204E0
8.685982210E-1,2.639999986E-1,4.110000134E-1,6.502050400E0,6.520373947E0
8.710681020E-1,2.639999986E-1,3.919500113E-1,6.522000313E0,6.539098477E0
8.735376400E-1,3.019500077E-1,3.349500299E-1,6.522000313E0,6.537572440E0
8.760071790E-1,3.019500077E-1,3.160500228E-1,6.559950352E0,6.574496942E0
8.784761220E-1,3.210000098E-1,2.389500141E-1,6.559950352E0,6.572144759E0
8.809450450E-1,3.019500077E-1,-2.959500253E-1,6.616950512E0,6.630444503E0
8.834130450E-1,3.019500077E-1,-3.160500228E-1,6.637050152E0,6.651428128E0
8.858810460E-1,2.830500007E-1,-3.160500228E-1,6.694050312E0,6.707481979E0
8.883523930E-1,2.830500007E-1,-3.540000021E-1,6.712950230E0,6.728234099E0
8.908237380E-1,2.260500044E-1,-3.730500042E-1,6.771000385E0,6.785035824E0
8.932957660E-1,2.059500068E-1,-4.300500154E-1,6.790050507E0,6.806771944E0
8.957677670E-1,-5.209500194E-1,-4.500000179E-1,7.441050529E0,7.472825565E0
8.982380720E-1,-5.209500194E-1,-5.070000291E-1,7.441050529E0,7.476474499E0
9.007083810E-1,-5.590500236E-1,-5.070000291E-1,7.498050213E0,7.535936767E0
9.031765730E-1,-1.095000029E0,-5.449500084E-1,7.537050247E0,7.635648106E0
9.056447660E-1,-1.114050031E0,-5.260500312E-1,8.188050270E0,8.280217590E0
9.081140030E-1,-1.095000029E0,-5.449500084E-1,8.188050270E0,8.278898647E0
9.105832320E-1,-1.114050031E0,-5.260500312E-1,8.226000786E0,8.317747594E0
9.130527320E-1,-1.057050109E0,-5.449500084E-1,8.206950188E0,8.292668860E0
9.155222330E-1,-1.038000107E0,-5.260500312E-1,8.226000786E0,8.307903573E0
9.179904240E-1,-9.990000725E-1,-5.650500059E-1,8.188050270E0,8.268098323E0
9.204586170E-1,-9.610500336E-1,-5.839500427E-1,8.149950027E0,8.227168424E0
9.229264200E-1,-8.839500546E-1,-6.409500241E-1,7.498050213E0,7.577132810E0
9.253942270E-1,-2.910000086E-1,-1.197000027E0,7.498050213E0,7.598568751E0
9.278626900E-1,-2.719500065E-1,-1.216050029E0,7.422000408E0,7.525876995E0
9.303311510E-1,-2.910000086E-1,-1.234950066E0,6.808950424E0,6.926152507E0
9.327988430E-1,-2.719500065E-1,-1.291950107E0,6.771000385E0,6.898517094E0
9.352665360E-1,-2.910000086E-1,-1.828950047E0,6.751050472E0,7.000458682E0
9.377308230E-1,-2.910000086E-1,-1.848000050E0,6.694050312E0,6.950546365E0
9.401951320E-1,-3.100500107E-1,-1.848000050E0,6.675000191E0,6.933026954E0
9.426612880E-1,-3.100500107E-1,-1.905000091E0,6.616950512E0,6.892691088E0
9.451274390E-1,-3.480000198E-1,-1.924050093E0,6.616950512E0,6.899790348E0
9.475956320E-1,-3.480000198E-1,-1.981950045E0,6.579000473E0,6.879860261E0
9.500638250E-1,-4.060500264E-1,-2.001000166E0,6.598050117E0,6.906746241E0
9.525325550E-1,-4.249500334E-1,-2.059050083E0,6.598050117E0,6.924921308E0
9.550012860E-1,-4.630500078E-1,-2.059050083E0,7.173000336E0,7.477033929E0
9.574691690E-1,-4.440000355E-1,-2.097000122E0,7.173000336E0,7.486419662E0
9.599370560E-1,-4.630500078E-1,-2.097000122E0,7.747050285E0,8.039192307E0
9.624059790E-1,-4.440000355E-1,-2.116050005E0,7.747050285E0,8.043108341E0
9.648749020E-1,-4.440000355E-1,-2.097000122E0,7.804950237E0,8.093935616E0
9.673422750E-1,1.300500035E-1,-2.116050005E0,8.437050819E0,8.699333719E0
9.698096600E-1,1.300500035E-1,-2.116050005E0,8.475000381E0,8.736144006E0
9.722788920E-1,7.429500222E-1,-2.154000044E0,8.475000381E0,8.775951367E0
9.747481230E-1,7.240500450E-1,-2.173050165E0,8.533050537E0,8.835120087E0
9.772168520E-1,7.810500264E-1,-2.230950117E0,8.551950455E0,8.872600191E0
9.796855830E-1,1.336050034E0,-2.806050062E0,8.608950615E0,9.152757909E0
9.821546560E-1,1.393950105E0,-2.844000101E0,8.629050255E0,9.191949835E0
9.846237330E-1,1.413000107E0,-2.863050222E0,8.686050415E0,9.254247549E0
9.870928090E-1,1.489950061E0,-3.438000202E0,8.704950333E0,9.477128092E0
9.895618860E-1,2.179050207E0,-3.418050051E0,8.782050133E0,9.672421129E0
9.920323480E-1,2.197950125E0,-3.475950241E0,8.800950050E0,9.714419006E0
9.945028090E-1,2.218050003E0,-3.514050245E0,8.857950211E0,9.784251472E0
9.969693310E-1,2.275050163E0,-4.204050064E0,8.878050804E0,1.008313822E1
9.994358340E-1,2.313000202E0,-4.204050064E0,8.916000366E0,1.012517009E1
1.001904720E0,2.887950182E0,-4.261050224E0,8.916000366E0,1.029523520E1
1.004373603E0,2.869050026E0,-4.300050259E0,8.935050011E0,1.032264496E1
1.006841178E0,2.850000143E0,-4.375950336E0,8.916000366E0,1.033278785E1
1.009308757E0,2.811000109E0,-4.414950371E0,8.935050011E0,1.035512564E1
1.011779013E0,2.275050163E0,-4.471950054E0,8.896950722E0,1.021420201E1
1.014249280E0,2.256000042E0,-4.491000175E0,8.878050804E0,1.020188242E1
1.016718702E0,2.236950159E0,-4.549050331E0,8.800950050E0,1.015650170E1
1.019188127E0,2.179050207E0,-4.549050331E0,8.226000786E0,9.649311253E0
1.021658127E0,2.140950203E0,-4.567950249E0,8.206950188E0,9.633476456E0
1.024128126E0,2.064000130E0,-4.549050331E0,8.206950188E0,9.607704556E0
1.026596621E0,2.044950008E0,-4.567950249E0,8.149950027E0,9.563978014E0
1.029065084E0,1.969050050E0,-4.528950214E0,8.110950470E0,9.496107922E0
1.031534892E0,1.948950052E0,-4.528950214E0,7.537050247E0,9.006493368E0
1.034004699E0,1.891950130E0,-4.471950054E0,7.555950165E0,8.981658838E0
1.036473659E0,1.891950130E0,-4.434000015E0,7.518000126E0,8.930854233E0
1.038942622E0,1.873050094E0,-3.820950270E0,7.518000126E0,8.638767476E0
1.041410789E0,1.873050094E0,-3.820950270E0,7.498050213E0,8.621411405E0
1.043878944E0,1.854000092E0,-3.781950235E0,7.498050213E0,8.600070983E0
1.046348752E0,1.873050094E0,-3.763050079E0,7.479000568E0,8.579295545E0
1.048818559E0,1.873050094E0,-3.706050158E0,7.498050213E0,8.571107362E0
1.051285211E0,1.891950130E0,-3.667950153E0,7.479000568E0,8.542176721E0
1.053751866E0,1.873050094E0,-3.591000080E0,7.518000126E0,8.539550581E0
1.056220353E0,1.891950130E0,-3.553050280E0,7.537050247E0,8.544633872E0
1.058688814E0,1.873050094E0,-3.475950241E0,7.594050407E0,8.559214235E0
1.061154620E0,1.873050094E0,-3.438000202E0,8.131050110E0,9.024529790E0
1.063620429E0,1.834050059E0,-3.361050129E0,8.169000626E0,9.021805186E0
1.066088431E0,1.834050059E0,-2.824950218E0,8.188050270E0,8.853713943E0
1.068556430E0,1.795950055E0,-2.806050062E0,8.782050133E0,9.392750294E0
1.071024298E0,1.795950055E0,-2.824950218E0,8.782050133E0,9.398413955E0
1.073492183E0,1.777050138E0,-2.785950184E0,8.839050293E0,9.436537273E0
1.075960800E0,1.795950055E0,-2.785950184E0,8.878050804E0,9.476641869E0
1.078429415E0,1.758000135E0,-2.767050028E0,9.529050827E0,1.007719902E1
1.080898337E0,1.777050138E0,-2.785950184E0,9.529050827E0,1.008574416E1
1.083367260E0,1.720050097E0,-2.767050028E0,9.586050034E0,1.012459843E1
1.085834942E0,1.699950099E0,-2.785950184E0,9.604950905E0,1.014428069E1
1.088302635E0,1.106999993E0,-2.767050028E0,9.663000107E0,1.011215041E1
1.090770021E0,1.126049995E0,-2.806050062E0,9.700950623E0,1.016121787E1
1.093237406E0,1.068000078E0,-2.806050062E0,9.759000778E0,1.021041808E1
1.095704790E0,1.048950076E0,-2.863050222E0,9.759000778E0,1.022425787E1
1.098172175E0,9.730500579E-1,-2.881950140E0,9.778050423E0,1.024025064E1
1.100637221E0,4.360500276E-1,-2.940000057E0,9.759000778E0,1.020156048E1
1.103102260E0,4.170000255E-1,-2.977950096E0,9.759000778E0,1.021176635E1
1.105567337E0,4.360500276E-1,-3.055050135E0,9.700950623E0,1.017997613E1
1.108032414E0,4.170000255E-1,-3.073950052E0,9.663000107E0,1.014872549E1
1.110497991E0,4.360500276E-1,-3.130950212E0,9.088050842E0,9.622144094E0
1.112963568E0,4.170000255E-1,-3.130950212E0,9.106950760E0,9.639154029E0
1.115432642E0,4.360500276E-1,-3.150000095E0,9.069000244E0,9.610380099E0
1.117901717E0,4.360500276E-1,-3.130950212E0,9.069000244E0,9.604152971E0
1.120368946E0,4.750500321E-1,-3.130950212E0,9.031050682E0,9.570182767E0
1.122836179E0,4.939500093E-1,-3.073950052E0,9.031050682E0,9.552645286E0
1.125301525E0,5.320500135E-1,-2.536950111E0,8.992050171E0,9.358213471E0
1.127766872E0,5.509500504E-1,-2.499000072E0,9.012000084E0,9.368281210E0
1.130233501E0,6.280500293E-1,-2.499000072E0,8.992050171E0,9.353951811E0
1.132700154E0,6.469500065E-1,-2.442000151E0,9.012000084E0,9.359383236E0
1.135166153E0,7.039500475E-1,-2.403000116E0,8.992050171E0,9.334180280E0
1.137632154E0,7.240500450E-1,-1.714050055E0,9.031050682E0,9.220742512E0
1.140098886E0,7.810500264E-1,-1.732950091E0,9.012000084E0,9.210282334E0
1.142565617E0,7.999500632E-1,-1.695000052E0,9.031050682E0,9.223492923E0
1.145031664E0,8.770500422E-1,-1.675050020E0,9.012000084E0,9.208211274E0
1.147497703E0,8.959500194E-1,-1.599000096E0,9.031050682E0,9.215172498E0
1.149965974E0,9.529500604E-1,-1.063050032E0,9.012000084E0,9.124381332E0
1.152434241E0,1.489950061E0,-1.042950034E0,9.031050682E0,9.212359762E0
1.154903664E0,1.528050065E0,-1.042950034E0,9.012000084E0,9.199936265E0
1.157373087E0,1.509000063E0,-1.004999995E0,9.031050682E0,9.211242186E0
1.159842284E0,1.528050065E0,-1.004999995E0,9.012000084E0,9.195711365E0
1.162311477E0,1.528050065E0,-9.670500755E-1,9.049950600E0,9.228853055E0
1.164779939E0,1.546950102E0,-9.670500755E-1,9.049950600E0,9.232001209E0
1.167248400E0,1.546950102E0,-9.280500412E-1,9.088050842E0,9.265365595E0
1.169716862E0,1.566000104E0,-9.480000734E-1,9.106950760E0,9.289112585E0
1.172185323E0,1.546950102E0,-9.280500412E-1,9.145950317E0,9.322163842E0
1.174654588E0,1.566000104E0,-9.480000734E-1,9.164999962E0,9.346030428E0
1.177123819E0,1.546950102E0,-9.480000734E-1,9.222000122E0,9.398778910E0
1.179590893E0,1.566000104E0,-1.004999995E0,9.241950035E0,9.427408009E0
1.182057972E0,1.546950102E0,-1.042950034E0,9.280050278E0,9.465734654E0
1.184526627E0,1.546950102E0,-1.714050055E0,9.298950195E0,9.581309772E0
1.186995280E0,1.509000063E0,-1.714050055E0,9.355950356E0,9.630620740E0
1.189463726E0,1.471050024E0,-1.752000093E0,9.376049995E0,9.651103876E0
1.191932189E0,1.393950105E0,-1.789950132E0,9.433050156E0,9.702033478E0
1.194400458E0,7.429500222E-1,-1.867050052E0,9.451950073E0,9.663188440E0
1.196868727E0,7.039500475E-1,-1.885950089E0,9.510000229E0,9.720723109E0
1.199337035E0,7.039500475E-1,-1.944000125E0,9.510000229E0,9.732152203E0
1.201805342E0,6.469500065E-1,-1.963050127E0,9.547950745E0,9.769108124E0
1.204272764E0,6.090000272E-1,-2.001000166E0,9.529050827E0,9.755905512E0
1.206740189E0,5.320500135E-1,-1.981950045E0,9.547950745E0,9.765990304E0
1.209208650E0,5.130000114E-1,-2.001000166E0,9.529050827E0,9.750383600E0
1.211677111E0,4.549500346E-1,-1.963050127E0,9.529050827E0,9.739782082E0
1.214144187E0,4.360500276E-1,-1.963050127E0,9.490950584E0,9.701641532E0
1.216611266E0,3.979500234E-1,-1.905000091E0,9.471000671E0,9.668880146E0
1.219077886E0,4.170000255E-1,-1.867050052E0,9.414000511E0,9.606412990E0
1.221544501E0,3.979500234E-1,-1.291950107E0,9.394950867E0,9.491712232E0
1.224012810E0,4.170000255E-1,-1.291950107E0,9.337050438E0,9.435228401E0
1.226481117E0,3.979500234E-1,-1.234950066E0,9.318000793E0,9.407901183E0
1.228948346E0,4.549500346E-1,-1.216050029E0,9.280050278E0,9.370437042E0
1.231415579E0,4.549500346E-1,-1.138950109E0,9.298950195E0,9.379480882E0
1.233884642E0,4.939500093E-1,-1.101000071E0,9.280050278E0,9.358179359E0
1.236353717E0,4.939500093E-1,-4.690500200E-1,9.298950195E0,9.323865575E0
1.238822601E0,5.320500135E-1,-4.879500270E-1,9.298950195E0,9.326931284E0
1.241291486E0,5.509500504E-1,-4.690500200E-1,9.337050438E0,9.365044835E0
1.243759832E0,5.890500546E-1,-4.879500270E-1,9.337050438E0,9.368328884E0
1.246228179E0,6.090000272E-1,-4.690500200E-1,9.376049995E0,9.407507772E0
1.248693694E0,6.660000086E-1,-4.879500270E-1,9.376049995E0,9.412330464E0
1.251159195E0,6.850500107E-1,-4.690500200E-1,9.433050156E0,9.469516180E0
1.253627196E0,7.429500222E-1,-5.070000291E-1,9.451950073E0,9.494650281E0
1.256095195E0,7.810500264E-1,-5.070000291E-1,9.510000229E0,9.555479712E0
1.258562617E0,1.356000066E0,-5.650500059E-1,9.547950745E0,9.660299225E0
1.261030040E0,1.336050034E0,-6.030000448E-1,1.014195061E1,1.024733140E1
1.263496179E0,1.356000066E0,-1.312050104E0,1.014195061E1,1.031597663E1
1.265962334E0,1.317000031E0,-1.312050104E0,1.018005085E1,1.034840084E1
1.268429681E0,1.317000031E0,-1.387950063E0,1.018005085E1,1.035829763E1
1.270897026E0,1.279050112E0,-2.059050083E0,1.023795033E1,1.052099251E1
1.273364564E0,1.279050112E0,-2.116050005E0,1.025700092E1,1.055081536E1
1.275832103E0,1.222050071E0,-2.691000223E0,1.029495049E1,1.071078401E1
1.278300521E0,1.183050036E0,-2.748000145E0,1.029495049E1,1.072087299E1
1.280768984E0,1.126049995E0,-2.785950184E0,1.035195065E1,1.077925736E1
1.283238098E0,1.106999993E0,-3.399000168E0,1.037205029E1,1.097078294E1
1.285707213E0,5.320500135E-1,-3.379950047E0,1.042905045E1,1.097598436E1
1.288175482E0,5.509500504E-1,-3.418050051E0,1.044795036E1,1.100664703E1
1.290643753E0,5.320500135E-1,-3.438000202E0,1.050600052E1,1.106702171E1
1.293112258E0,5.509500504E-1,-3.495000124E0,1.052505016E1,1.110383955E1
1.295580757E0,5.320500135E-1,-3.495000124E0,1.058205032E1,1.115696608E1
1.298048872E0,5.509500504E-1,-3.532950163E0,1.060095024E1,1.118773564E1
1.300516989E0,5.320500135E-1,-3.514050245E0,1.063995075E1,1.121785088E1
1.302984989E0,5.509500504E-1,-3.532950163E0,1.063995075E1,1.122469754E1
1.305452988E0,5.320500135E-1,-3.514050245E0,1.065900040E1,1.123592078E1
1.307922681E0,5.700000525E-1,-3.532950163E0,1.063995075E1,1.122564871E1
1.310392372E0,5.700000525E-1,-3.495000124E0,1.063995075E1,1.121376288E1
1.312861487E0,6.090000272E-1,-3.475950241E0,1.060095024E1,1.117288043E1
1.315330604E0,5.890500546E-1,-3.418050051E0,1.058205032E1,1.113597033E1
1.317799219E0,6.090000272E-1,-3.379950047E0,1.052505016E1,1.107120699E1
1.320267834E0,5.890500546E-1,-2.785950184E0,1.050600052E1,1.088506065E1
1.322736296E0,5.890500546E-1,-2.806050062E0,1.044795036E1,1.083423111E1
1.325204757E0,5.700000525E-1,-2.767050028E0,1.042905045E1,1.080493217E1
1.327674297E0,5.700000525E-1,-2.748000145E0,1.039095020E1,1.076328254E1
1.330143834E0,5.320500135E-1,-2.671050072E0,1.039095020E1,1.074194730E1
1.332612410E0,5.130000114E-1,-2.059050083E0,1.037205029E1,1.058689205E1
1.335080989E0,4.549500346E-1,-2.020050049E0,1.039095020E1,1.059525497E1
1.337551185E0,4.360500276E-1,-2.001000166E0,1.037205029E1,1.057230194E1
1.340021376E0,3.790500164E-1,-1.944000125E0,1.039095020E1,1.057802730E1
1.342488759E0,3.790500164E-1,-1.905000091E0,1.037205029E1,1.055235194E1
1.344956146E0,3.210000098E-1,-1.312050104E0,1.039095020E1,1.047837595E1
1.347425186E0,2.830500007E-1,-1.330950022E0,1.035195065E1,1.044099743E1
1.349894223E0,2.260500044E-1,-1.291950107E0,1.035195065E1,1.043470727E1
1.352362549E0,2.059500068E-1,-1.273050070E0,1.031400013E1,1.039430953E1
1.354830896E0,1.489500105E-1,-1.216050029E0,1.029495049E1,1.036759226E1
1.357299974E0,1.300500035E-1,-1.197000027E0,1.023795033E1,1.030850857E1
1.359769051E0,7.200000435E-2,-1.138950109E0,1.021800041E1,1.028153314E1
1.362238088E0,-4.819500148E-1,-1.120050073E0,1.016100025E1,1.023390024E1
1.364707127E0,-5.010000467E-1,-1.063050032E0,1.014195061E1,1.020981090E1
1.367175891E0,-4.819500148E-1,-1.063050032E0,1.008405018E1,1.015137524E1
1.369644660E0,-5.010000467E-1,-1.024049997E0,1.006500053E1,1.012935907E1
1.372112545E0,-4.819500148E-1,-1.024049997E0,1.002705002E1,1.009072278E1
1.374580430E0,-5.010000467E-1,-9.859500527E-1,1.000800037E1,1.006892100E1
1.377049816E0,-4.819500148E-1,-9.859500527E-1,9.949950218E0,1.001028884E1
1.379519199E0,-4.819500148E-1,-9.480000734E-1,9.931050301E0,9.987829596E0
1.381987592E0,-4.440000355E-1,-9.480000734E-1,9.874050140E0,9.929386000E0
1.384456017E0,-4.440000355E-1,-9.090000391E-1,9.853950500E0,9.905743666E0
1.386925594E0,-4.060500264E-1,-9.090000391E-1,9.796950340E0,9.847405428E0
1.389395171E0,-3.859500289E-1,-8.710500598E-1,9.759000778E0,9.805395546E0
1.391862515E0,-3.480000198E-1,-8.710500598E-1,9.184050560E0,9.231826304E0
1.394329862E0,-3.289500177E-1,-8.329500556E-1,9.184050560E0,9.227610666E0
1.396799763E0,-2.719500065E-1,-8.329500556E-1,9.145950317E0,9.187827263E0
1.399269646E0,-2.520000041E-1,-7.939500213E-1,9.145950317E0,9.183804650E0
1.401738568E0,-1.950000077E-1,-8.140500188E-1,9.106950760E0,9.145340594E0
1.404207493E0,-1.759500057E-1,-7.939500213E-1,9.106950760E0,9.143186927E0
1.406677301E0,-1.369500011E-1,-8.140500188E-1,9.069000244E0,9.106492089E0
1.409147108E0,-9.900000691E-2,-7.939500213E-1,9.069000244E0,9.104225561E0
1.411616198E0,-2.295000106E-2,-8.140500188E-1,9.031050682E0,9.067694335E0
1.414085315E0,-3.000000026E-3,-7.939500213E-1,9.049950600E0,9.084710865E0
1.416554046E0,5.295000225E-2,-8.140500188E-1,9.031050682E0,9.067819890E0
1.419022777E0,7.200000435E-2,-7.939500213E-1,9.049950600E0,9.084995679E0
1.421491700E0,1.300500035E-1,-8.140500188E-1,9.012000084E0,9.049626288E0
1.423960623E0,1.489500105E-1,-8.140500188E-1,9.012000084E0,9.049917627E0
1.426428356E0,1.870500147E-1,-8.520000577E-1,8.973000526E0,9.015299787E0
1.428896089E0,1.870500147E-1,-8.329500556E-1,8.973000526E0,9.013519399E0
1.431362819E0,2.260500044E-1,-8.520000577E-1,8.935050011E0,8.978425329E0
1.433829550E0,2.260500044E-1,-8.329500556E-1,8.935050011E0,8.976637627E0
1.436296473E0,2.639999986E-1,-8.520000577E-1,8.896950722E0,8.941550886E0
1.438763396E0,2.639999986E-1,-8.329500556E-1,8.896950722E0,8.939755810E0
1.441229915E0,3.019500077E-1,-8.520000577E-1,8.857950211E0,8.903951923E0
1.443696416E0,3.019500077E-1,-8.329500556E-1,8.878050804E0,8.922150284E0
1.446163647E0,3.210000098E-1,-8.520000577E-1,8.857950211E0,8.904618298E0
1.448630878E0,3.210000098E-1,-8.329500556E-1,8.878050804E0,8.922815300E0
1.451099339E0,3.400500119E-1,-8.520000577E-1,8.857950211E0,8.905325375E0
1.453567800E0,3.400500119E-1,-8.329500556E-1,8.878050804E0,8.923520936E0
1.456033948E0,3.979500234E-1,-8.520000577E-1,8.878050804E0,8.927712719E0
1.458500103E0,4.170000255E-1,-8.329500556E-1,8.916000366E0,8.964527726E0
1.460967605E0,4.750500321E-1,-8.329500556E-1,8.916000366E0,8.967415506E0
1.463435104E0,5.130000114E-1,-7.939500213E-1,8.973000526E0,9.022652830E0
1.465904796E0,5.890500546E-1,-7.939500213E-1,8.992050171E0,9.046231419E0
1.468374487E0,1.240950108E0,-7.560000420E-1,9.049950600E0,9.165865976E0
1.470841448E0,1.260000110E0,-7.369500399E-1,9.586050034E0,9.696548401E0
1.473308411E0,1.260000110E0,-6.790500283E-1,9.625050545E0,9.730894471E0
1.475776681E0,1.317000031E0,-6.600000262E-1,9.625050545E0,9.737129305E0
1.478244950E0,1.336050034E0,-6.030000448E-1,9.682050705E0,9.792381968E0
1.480715565E0,1.393950105E0,-5.839500427E-1,9.700950623E0,9.817970133E0
1.483186180E0,1.393950105E0,-5.260500312E-1,9.778050423E0,9.890909746E0
1.485657275E0,1.413000107E0,-5.260500312E-1,9.816000938E0,9.931121405E0
1.488128392E0,1.393950105E0,-4.879500270E-1,1.041000080E1,1.051424314E1
1.490598544E0,1.375050068E0,-5.070000291E-1,1.039095020E1,1.049379139E1
1.493068699E0,1.336050034E0,-4.879500270E-1,1.041000080E1,1.050672364E1
1.495538853E0,1.317000031E0,-5.070000291E-1,1.039095020E1,1.048634275E1
1.498009006E0,1.240950108E0,-4.879500270E-1,1.041000080E1,1.049505451E1
1.500476086E0,1.201950073E0,-5.260500312E-1,1.039095020E1,1.047345496E1
1.502943165E0,4.939500093E-1,-5.260500312E-1,1.041000080E1,1.043498117E1
1.505411319E0,5.130000114E-1,-5.650500059E-1,1.039095020E1,1.041893932E1
1.507879472E0,4.750500321E-1,-5.650500059E-1,1.041000080E1,1.043614252E1
1.510349434E0,4.549500346E-1,-6.030000448E-1,1.039095020E1,1.041837006E1
1.512819395E0,3.979500234E-1,-5.839500427E-1,1.041000080E1,1.043395795E1
1.515288371E0,3.979500234E-1,-6.030000448E-1,1.037205029E1,1.039718233E1
1.517757334E0,3.210000098E-1,-5.839500427E-1,1.037205029E1,1.039343378E1
1.520228258E0,2.830500007E-1,-6.030000448E-1,1.031400013E1,1.033548862E1
1.522699179E0,2.260500044E-1,-5.839500427E-1,1.029495049E1,1.031397604E1
1.525165754E0,2.059500068E-1,-6.030000448E-1,1.023795033E1,1.025776054E1
1.527632333E0,1.489500105E-1,-5.839500427E-1,1.021800041E1,1.023575675E1
1.530098834E0,1.300500035E-1,-6.030000448E-1,1.016100025E1,1.017970767E1
1.532565333E0,7.200000435E-2,-5.839500427E-1,1.014195061E1,1.015900309E1
1.535033296E0,7.200000435E-2,-6.030000448E-1,1.008405018E1,1.010231959E1
1.537501257E0,1.500000060E-2,-5.839500427E-1,1.006500053E1,1.008193723E1
1.539969910E0,1.500000060E-2,-6.030000448E-1,1.002705002E1,1.004517626E1
1.542438565E0,-4.200000316E-2,-5.839500427E-1,1.004595089E1,1.006299612E1
1.544908988E0,-7.995000482E-2,-6.220500469E-1,1.002705002E1,1.004664473E1
1.547379411E0,-1.369500011E-1,-6.030000448E-1,1.004595089E1,1.006496367E1
1.549848524E0,-1.570500135E-1,-6.220500469E-1,1.002705002E1,1.004755408E1
1.552317641E0,-2.140500098E-1,-6.030000448E-1,1.004595089E1,1.006630795E1
1.554786256E0,-2.140500098E-1,-6.409500241E-1,1.002705002E1,1.004979435E1
1.557254871E0,-2.719500065E-1,-6.409500241E-1,1.004595089E1,1.007004980E1
1.559722996E0,-3.100500107E-1,-6.600000262E-1,1.002705002E1,1.005352988E1
1.562191111E0,-3.859500289E-1,-6.409500241E-1,1.002705002E1,1.005492449E1
1.564660189E0,-4.060500264E-1,-6.600000262E-1,9.988950729E0,1.001896269E1
1.567129266E0,-4.630500078E-1,-6.409500241E-1,9.969000816E0,1.000031047E1
1.569598226E0,-4.819500148E-1,-6.600000262E-1,9.912000656E0,9.945633859E0
1.572067189E0,-5.400000215E-1,-6.409500241E-1,9.892950058E0,9.928387473E0
1.574536569E0,-5.400000215E-1,-6.600000262E-1,9.835050583E0,9.871951176E0
1.577005952E0,-5.779500008E-1,-6.409500241E-1,9.816000938E0,9.853868152E0
1.579471912E0,-5.779500008E-1,-6.600000262E-1,9.759000778E0,9.798353047E0
1.581937875E0,-6.160500050E-1,-6.409500241E-1,9.759000778E0,9.799409713E0
1.584408225E0,-6.160500050E-1,-6.600000262E-1,9.720000267E0,9.761840136E0
1.586878568E0,-6.550500393E-1,-6.409500241E-1,9.720000267E0,9.763109785E0
1.589346389E0,-6.930000186E-1,-6.600000262E-1,9.682050705E0,9.729231980E0
1.591814198E0,-7.500000596E-1,-6.409500241E-1,9.682050705E0,9.732184897E0
1.594281891E0,-1.402050018E0,-6.600000262E-1,9.625050545E0,9.748996988E0
1.596749584E0,-1.420950055E0,-6.409500241E-1,9.604950905E0,9.730621659E0
1.599217276E0,-1.402050018E0,-6.600000262E-1,9.567000389E0,9.691689261E0
1.601684967E0,-1.440000057E0,-6.409500241E-1,9.547950745E0,9.677178335E0
1.604151895E0,-1.440000057E0,-6.600000262E-1,9.490950584E0,9.622231716E0
1.606618818E0,-1.477950096E0,-6.409500241E-1,9.471000671E0,9.607029048E0
1.609087011E0,-1.477950096E0,-6.600000262E-1,9.414000511E0,9.552138093E0
1.611555202E0,-1.516950130E0,-6.409500241E-1,9.394950867E0,9.538189368E0
1.614021624E0,-1.516950130E0,-6.600000262E-1,9.337050438E0,9.482470596E0
1.616488049E0,-1.536000013E0,-6.409500241E-1,9.337050438E0,9.484230272E0
1.618954886E0,-1.536000013E0,-6.600000262E-1,9.298950195E0,9.448035288E0
1.621421693E0,-1.555050015E0,-6.409500241E-1,9.298950195E0,9.449839799E0
1.623892117E0,-1.555050015E0,-6.600000262E-1,9.261000633E0,9.413815024E0
1.626362540E0,-1.573950052E0,-6.409500241E-1,9.261000633E0,9.415639566E0
1.628833038E0,-1.573950052E0,-6.600000262E-1,9.222000122E0,9.378603577E0
1.631303539E0,-1.593000054E0,-6.409500241E-1,9.222000122E0,9.380498513E0
1.633774564E0,-1.555050015E0,-6.409500241E-1,9.184050560E0,9.336797212E0
1.636245603E0,-1.573950052E0,-6.220500469E-1,9.202950478E0,9.357273242E0
1.638714831E0,-1.536000013E0,-6.409500241E-1,9.184050560E0,9.333643322E0
1.641184064E0,-1.516950130E0,-6.220500469E-1,9.202950478E0,9.347854377E0
1.643656373E0,-1.459050059E0,-6.409500241E-1,9.184050560E0,9.321289004E0
1.646128680E0,-1.420950055E0,-6.220500469E-1,9.202950478E0,9.332756442E0
1.648597182E0,-7.890000343E-1,-6.409500241E-1,9.184050560E0,9.240136507E0
1.651065685E0,-8.080500364E-1,-6.409500241E-1,9.202950478E0,9.260564739E0
1.653533685E0,-7.500000596E-1,-6.790500283E-1,9.184050560E0,9.239610041E0
1.656001684E0,-7.309500575E-1,-6.790500283E-1,9.202950478E0,9.256872821E0
1.658471031E0,-6.930000186E-1,-6.990000606E-1,9.184050560E0,9.236646296E0
1.660940376E0,-6.550500393E-1,-6.990000606E-1,9.222000122E0,9.271622182E0
1.663409948E0,1.300500035E-1,-7.180500627E-1,9.222000122E0,9.250826728E0
1.665879525E0,1.110000089E-1,-6.990000606E-1,9.280050278E0,9.307000335E0
1.668347678E0,1.680000126E-1,-7.180500627E-1,9.874050140E0,9.901549680E0
1.670815833E0,2.059500068E-1,-6.990000606E-1,9.912000656E0,9.938751103E0
1.673283795E0,2.830500007E-1,-7.180500627E-1,9.949950218E0,9.979840807E0
1.675751756E0,1.048950076E0,-6.990000606E-1,1.071600056E1,1.078988254E1
1.678218544E0,1.087050080E0,-7.180500627E-1,1.073595047E1,1.081470787E1
1.680685351E0,1.087050080E0,-6.990000606E-1,1.079295063E1,1.087005346E1
1.683150428E0,1.126049995E0,-6.990000606E-1,1.083105087E1,1.091184002E1
1.685615505E0,1.144950032E0,-6.600000262E-1,1.088895035E1,1.096885365E1
1.688079929E0,1.183050036E0,-6.600000262E-1,1.090800095E1,1.099180113E1
1.690544352E0,1.201950073E0,-6.220500469E-1,1.092705059E1,1.101054335E1
1.693010050E0,1.260000110E0,-6.220500469E-1,1.090800095E1,1.099813762E1
1.695475741E0,1.279050112E0,-5.650500059E-1,1.088895035E1,1.097836465E1
1.697940086E0,1.336050034E0,-5.449500084E-1,1.025700092E1,1.035799537E1
1.700404433E0,1.336050034E0,-4.879500270E-1,1.025700092E1,1.035515296E1
1.702869473E0,1.393950105E0,-4.879500270E-1,9.625050545E0,9.737699426E0
1.705334510E0,1.393950105E0,-4.300500154E-1,9.625050545E0,9.734969846E0
1.707798240E0,1.432050109E0,-4.300500154E-1,9.567000389E0,9.683140347E0
1.710261973E0,1.432050109E0,-3.730500042E-1,9.529050827E0,9.643274521E0
1.712729475E0,1.471050024E0,-3.540000021E-1,8.839050293E0,8.967614747E0
1.715196972E0,1.471050024E0,-3.160500228E-1,8.839050293E0,8.966196845E0
1.717664240E0,1.509000063E0,-3.160500228E-1,8.800950050E0,8.934970095E0
1.720131511E0,1.509000063E0,-2.580000162E-1,8.800950050E0,8.933105115E0
1.722599631E0,1.566000104E0,-2.389500141E-1,8.743050575E0,8.885403018E0
1.725067746E0,1.566000104E0,-2.010000050E-1,8.743050575E0,8.884463444E0
1.727533783E0,1.624050021E0,-2.010000050E-1,8.704950333E0,8.857431895E0
1.729999824E0,1.642950058E0,-1.620000005E-1,8.704950333E0,8.860117899E0
1.732468594E0,1.699950099E0,-1.620000005E-1,8.667000771E0,8.833627607E0
1.734937361E0,1.699950099E0,-1.240500063E-1,8.686050415E0,8.851705517E0
1.737406731E0,1.738950133E0,-1.429500133E-1,8.667000771E0,8.840887095E0
1.739876116E0,1.738950133E0,-1.240500063E-1,8.686050415E0,8.859278062E0
1.742344385E0,1.777050138E0,-1.429500133E-1,8.667000771E0,8.848459993E0
1.744812656E0,1.758000135E0,-1.240500063E-1,8.686050415E0,8.863036990E0
1.747279271E0,1.777050138E0,-1.429500133E-1,8.667000771E0,8.848459993E0
1.749745886E0,1.758000135E0,-1.240500063E-1,8.686050415E0,8.863036990E0
1.752209424E0,1.777050138E0,-1.429500133E-1,8.667000771E0,8.848459993E0
1.754672963E0,1.738950133E0,-1.429500133E-1,8.686050415E0,8.859562861E0
1.757138388E0,1.720050097E0,-1.810500026E-1,8.667000771E0,8.837887406E0
1.759603809E0,1.662000060E0,-2.010000050E-1,8.686050415E0,8.845909621E0
1.762069155E0,1.642950058E0,-2.580000162E-1,8.667000771E0,8.825120467E0
1.764534502E0,1.585050106E0,-2.770500183E-1,8.686050415E0,8.833833390E0
1.767000371E0,1.585050106E0,-3.349500299E-1,8.667000771E0,8.817112777E0
1.769466256E0,1.528050065E0,-3.540000021E-1,8.686050415E0,8.826535267E0
1.771934410E0,1.528050065E0,-4.110000134E-1,8.667000771E0,8.810264489E0
1.774402563E0,1.489950061E0,-4.500000179E-1,8.686050415E0,8.824393634E0
1.776870217E0,1.489950061E0,-5.260500312E-1,8.667000771E0,8.809857103E0
1.779337872E0,1.471050024E0,-5.449500084E-1,8.686050415E0,8.826575242E0
1.781804386E0,1.509000063E0,-6.220500469E-1,8.667000771E0,8.819349738E0
1.784270887E0,1.489950061E0,-6.600000262E-1,8.667000771E0,8.818869178E0
1.786737656E0,1.528050065E0,-7.369500399E-1,8.629050255E0,8.794233376E0
1.789204425E0,1.509000063E0,-7.560000420E-1,8.629050255E0,8.792560808E0
1.791671193E0,1.528050065E0,-8.329500556E-1,8.590050697E0,8.764571511E0
1.794137964E0,1.509000063E0,-8.520000577E-1,8.590050697E0,8.763101978E0
1.796605771E0,1.509000063E0,-9.090000391E-1,8.551950455E0,8.731507249E0
1.799073578E0,1.489950061E0,-9.280500412E-1,8.571000099E0,8.748901117E0
1.801541924E0,1.489950061E0,-9.859500527E-1,8.551950455E0,8.736584302E0
1.804010271E0,1.471050024E0,-1.004999995E0,8.571000099E0,8.754202183E0
1.806481156E0,1.489950061E0,-1.063050032E0,8.551950455E0,8.745620797E0
1.808952041E0,1.450950027E0,-1.081950068E0,8.590050697E0,8.778658378E0
1.811423005E0,1.432050109E0,-1.138950109E0,8.590050697E0,8.782764135E0
1.813893968E0,1.375050068E0,-1.158000112E0,8.629050255E0,8.814319897E0
1.816360272E0,1.356000066E0,-1.234950066E0,8.647950172E0,8.840298639E0
1.818826583E0,1.279050112E0,-1.254000068E0,8.704950333E0,8.887330626E0
1.821295815E0,7.429500222E-1,-1.312050104E0,8.723999977E0,8.853339811E0
1.823765044E0,7.240500450E-1,-1.330950022E0,8.782050133E0,8.911794486E0
1.826233958E0,7.039500475E-1,-1.369050026E0,8.820000648E0,8.953337650E0
1.828702881E0,6.660000086E-1,-1.369050026E0,9.451950073E0,9.573777424E0
1.831173806E0,6.660000086E-1,-1.407000065E0,9.451950073E0,9.579277915E0
1.833644727E0,6.090000272E-1,-1.387950063E0,9.510000229E0,9.630025481E0
1.836113803E0,5.700000525E-1,-1.407000065E0,9.529050827E0,9.649215455E0
1.838582882E0,5.130000114E-1,-1.369050026E0,1.010295010E1,1.020818630E1
1.841050573E0,4.939500093E-1,-1.369050026E0,1.008405018E1,1.018854026E1
1.843518266E0,4.360500276E-1,-1.312050104E0,1.012305069E1,1.021703334E1
1.845989769E0,4.170000255E-1,-1.291950107E0,1.012305069E1,1.021367609E1
1.848461266E0,3.400500119E-1,-1.234950066E0,1.016100025E1,1.024141893E1
1.850930803E0,3.019500077E-1,-1.197000027E0,1.016100025E1,1.023571732E1
1.853400344E0,2.449500114E-1,-1.120050073E0,1.021800041E1,1.028212260E1
1.855868693E0,2.260500044E-1,-1.101000071E0,1.023795033E1,1.029946244E1
1.858337040E0,1.680000126E-1,-1.042950034E0,1.029495049E1,1.034900837E1
1.860806232E0,1.489500105E-1,-1.024049997E0,1.029495049E1,1.034682898E1
1.863275423E0,9.105000645E-2,-9.670500755E-1,1.033305073E1,1.037860363E1
1.865745308E0,9.105000645E-2,-9.480000734E-1,1.031400013E1,1.035787589E1
1.868215193E0,3.405000269E-2,-8.899500370E-1,1.033305073E1,1.037135998E1
1.870683928E0,-3.000000026E-3,-8.710500598E-1,1.031400013E1,1.035071668E1
1.873152659E0,-6.105000153E-2,-8.140500188E-1,1.031400013E1,1.034625552E1
1.875621006E0,-7.995000482E-2,-7.939500213E-1,1.025700092E1,1.028799381E1
1.878089353E0,-1.369500011E-1,-7.369500399E-1,1.023795033E1,1.026535326E1
1.880556853E0,-1.570500135E-1,-7.180500627E-1,1.016100025E1,1.018755057E1
1.883024352E0,-1.950000077E-1,-6.600000262E-1,1.012305069E1,1.014641712E1
1.885491151E0,-2.140500098E-1,-6.409500241E-1,1.006500053E1,1.008765930E1
1.887957958E0,-2.520000041E-1,-5.839500427E-1,1.004595089E1,1.006606333E1
1.890426113E0,-2.520000041E-1,-5.839500427E-1,9.988950729E0,1.000917770E1
1.892894266E0,-2.910000086E-1,-5.449500084E-1,9.988950729E0,1.000803618E1
1.895362881E0,-2.910000086E-1,-5.449500084E-1,9.949950218E0,9.969110334E0
1.897831496E0,-3.289500177E-1,-5.070000291E-1,9.949950218E0,9.968288042E0
1.900300255E0,-3.289500177E-1,-5.070000291E-1,9.912000656E0,9.930408559E0
1.902768986E0,-3.480000198E-1,-4.690500200E-1,9.912000656E0,9.929192764E0
1.905238102E0,-3.480000198E-1,-4.879500270E-1,9.853950500E0,9.872159830E0
1.907707217E0,-3.670500219E-1,-4.690500200E-1,9.835050583E0,9.853068233E0
1.910177833E0,-3.480000198E-1,-4.879500270E-1,9.778050423E0,9.796400835E0
1.912648448E0,-3.670500219E-1,-4.690500200E-1,9.759000778E0,9.777158576E0
1.915120435E0,-3.289500177E-1,-4.879500270E-1,9.700950623E0,9.718783171E0
1.917592434E0,-3.480000198E-1,-4.690500200E-1,9.700950623E0,9.718516086E0
1.920064434E0,-3.100500107E-1,-4.879500270E-1,9.663000107E0,9.680278782E0
1.922536435E0,-3.289500177E-1,-4.690500200E-1,9.682050705E0,9.698985611E0
1.925007048E0,-3.100500107E-1,-4.879500270E-1,9.663000107E0,9.680278782E0
1.927477665E0,-3.100500107E-1,-4.690500200E-1,9.682050705E0,9.698362995E0
1.929948742E0,-2.910000086E-1,-5.070000291E-1,9.663000107E0,9.680666356E0
1.932419819E0,-2.719500065E-1,-5.070000291E-1,9.682050705E0,9.699129429E0
1.934891049E0,-2.140500098E-1,-5.260500312E-1,9.663000107E0,9.679675465E0
1.937362280E0,-1.950000077E-1,-5.070000291E-1,9.682050705E0,9.697276931E0
1.939832240E0,-1.369500011E-1,-5.260500312E-1,9.643950462E0,9.659257966E0
1.942302203E0,-1.180500090E-1,-5.070000291E-1,9.643950462E0,9.657989716E0
1.944775633E0,-7.995000482E-2,-5.260500312E-1,9.604950905E0,9.619677880E0
1.947249054E0,-6.105000153E-2,-5.070000291E-1,9.586050034E0,9.599642253E0
1.949720745E0,-2.295000106E-2,-5.260500312E-1,9.547950745E0,9.562458824E0
1.952192440E0,-2.295000106E-2,-5.070000291E-1,9.547950745E0,9.561429765E0
1.954660900E0,-3.000000026E-3,-5.449500084E-1,9.510000229E0,9.525601496E0
1.957129363E0,-3.000000026E-3,-5.260500312E-1,9.529050827E0,9.543560515E0
1.959599633E0,5.295000225E-2,-5.449500084E-1,9.510000229E0,9.525748189E0
1.962069900E0,7.200000435E-2,-5.260500312E-1,9.529050827E0,9.543831636E0
1.964538399E0,1.300500035E-1,-5.449500084E-1,9.510000229E0,9.526488748E0
1.967006900E0,1.300500035E-1,-5.260500312E-1,9.529050827E0,9.544446097E0
1.969473669E0,1.680000126E-1,-5.449500084E-1,9.510000229E0,9.527082390E0
1.971940440E0,1.680000126E-1,-5.260500312E-1,9.529050827E0,9.545038622E0
1.974409815E0,2.059500068E-1,-5.449500084E-1,9.490950584E0,9.508813223E0
1.976879160E0,1.870500147E-1,-5.260500312E-1,9.510000229E0,9.526375003E0
1.979348697E0,2.260500044E-1,-5.449500084E-1,9.490950584E0,9.509269799E0
1.981818236E0,2.059500068E-1,-5.260500312E-1,9.510000229E0,9.526764844E0
1.984289005E0,2.260500044E-1,-5.449500084E-1,9.490950584E0,9.509269799E0
1.986759774E0,2.059500068E-1,-5.260500312E-1,9.510000229E0,9.526764844E0
1.989231520E0,2.260500044E-1,-5.449500084E-1,9.490950584E0,9.509269799E0
1.991703251E0,2.059500068E-1,-5.260500312E-1,9.510000229E0,9.526764844E0
1.994173827E0,2.260500044E-1,-5.449500084E-1,9.490950584E0,9.509269799E0
1.996644406E0,2.059500068E-1,-5.260500312E-1,9.510000229E0,9.526764844E0
1.999113982E0,2.260500044E-1,-5.449500084E-1,9.490950584E0,9.509269799E0
2.001583559E0,2.059500068E-1,-5.260500312E-1,9.490950584E0,9.507748789E0
2.004052342E0,2.260500044E-1,-5.449500084E-1,9.451950073E0,9.470344730E0
2.006521111E0,2.059500068E-1,-5.260500312E-1,9.451950073E0,9.468817467E0
2.008990612E0,2.260500044E-1,-5.449500084E-1,9.414000511E0,9.432469175E0
2.011460111E0,2.059500068E-1,-5.260500312E-1,9.433050156E0,9.449951285E0
2.013929341E0,2.260500044E-1,-5.449500084E-1,9.414000511E0,9.432469175E0
2.016398574E0,2.059500068E-1,-5.260500312E-1,9.433050156E0,9.449951285E0
2.018868564E0,2.260500044E-1,-5.449500084E-1,9.414000511E0,9.432469175E0
2.021338563E0,2.059500068E-1,-5.260500312E-1,9.433050156E0,9.449951285E0
2.023807024E0,2.260500044E-1,-5.449500084E-1,9.414000511E0,9.432469175E0
2.026275487E0,1.870500147E-1,-5.260500312E-1,9.433050156E0,9.449558274E0
2.028747527E0,2.059500068E-1,-5.449500084E-1,9.414000511E0,9.432008882E0
2.031219564E0,1.680000126E-1,-5.449500084E-1,9.433050156E0,9.450271412E0
2.033688138E0,1.870500147E-1,-5.650500059E-1,9.414000511E0,9.432797827E0
2.036156717E0,1.680000126E-1,-5.449500084E-1,9.433050156E0,9.450271412E0
2.038627373E0,1.870500147E-1,-5.650500059E-1,9.414000511E0,9.432797827E0
2.041098024E0,1.680000126E-1,-5.449500084E-1,9.433050156E0,9.450271412E0
2.043568909E0,1.870500147E-1,-5.650500059E-1,9.414000511E0,9.432797827E0
2.046039794E0,1.680000126E-1,-5.449500084E-1,9.433050156E0,9.450271412E0
2.048510558E0,1.870500147E-1,-5.650500059E-1,9.414000511E0,9.432797827E0
2.050981327E0,1.680000126E-1,-5.449500084E-1,9.433050156E0,9.450271412E0
2.053451674E0,1.870500147E-1,-5.650500059E-1,9.414000511E0,9.432797827E0
2.055922019E0,1.680000126E-1,-5.449500084E-1,9.433050156E0,9.450271412E0
2.058387826E0,1.870500147E-1,-5.650500059E-1,9.414000511E0,9.432797827E0
2.060853635E0,1.680000126E-1,-5.449500084E-1,9.433050156E0,9.450271412E0
2.063319492E0,1.870500147E-1,-5.650500059E-1,9.414000511E0,9.432797827E0
2.065785337E0,1.680000126E-1,-5.449500084E-1,9.433050156E0,9.450271412E0
2.068254723E0,1.870500147E-1,-5.650500059E-1,9.394950867E0,9.413786220E0
2.070724106E0,1.680000126E-1,-5.449500084E-1,9.394950867E0,9.412241832E0
2.073196415E0,1.870500147E-1,-5.650500059E-1,9.376049995E0,9.394923243E0
2.075668722E0,1.680000126E-1,-5.449500084E-1,9.394950867E0,9.412241832E0
2.078138634E0,1.870500147E-1,-5.650500059E-1,9.376049995E0,9.394923243E0
2.080608521E0,1.680000126E-1,-5.449500084E-1,9.394950867E0,9.412241832E0
2.083078059E0,1.870500147E-1,-5.650500059E-1,9.376049995E0,9.394923243E0
2.085547598E0,1.680000126E-1,-5.449500084E-1,9.394950867E0,9.412241832E0
2.088014635E0,1.870500147E-1,-5.650500059E-1,9.376049995E0,9.394923243E0
2.090481674E0,1.680000126E-1,-5.449500084E-1,9.394950867E0,9.412241832E0
2.092948227E0,1.870500147E-1,-5.650500059E-1,9.376049995E0,9.394923243E0
2.095414842E0,1.680000126E-1,-5.449500084E-1,9.394950867E0,9.412241832E0
2.097883920E0,1.870500147E-1,-5.650500059E-1,9.376049995E0,9.394923243E0
2.100352995E0,1.680000126E-1,-5.449500084E-1,9.394950867E0,9.412241832E0
2.102820533E0,1.870500147E-1,-5.650500059E-1,9.376049995E0,9.394923243E0
2.105288072E0,1.680000126E-1,-5.449500084E-1,9.394950867E0,9.412241832E0
2.107756891E0,1.870500147E-1,-5.650500059E-1,9.376049995E0,9.394923243E0
2.110225698E0,1.680000126E-1,-5.449500084E-1,9.394950867E0,9.412241832E0
2.112694621E0,2.059500068E-1,-5.650500059E-1,9.376049995E0,9.395318538E0
2.115163544E0,2.059500068E-1,-5.449500084E-1,9.394950867E0,9.412995682E0
2.117632121E0,2.449500114E-1,-5.650500059E-1,9.376049995E0,9.396254335E0
2.120100698E0,2.449500114E-1,-5.449500084E-1,9.394950867E0,9.413929722E0
2.122569814E0,2.830500007E-1,-5.650500059E-1,9.376049995E0,9.397324743E0
2.125038929E0,2.639999986E-1,-5.449500084E-1,9.394950867E0,9.414444662E0
2.127507082E0,3.019500077E-1,-5.650500059E-1,9.376049995E0,9.397913004E0
2.129975237E0,2.830500007E-1,-5.449500084E-1,9.376049995E0,9.396137575E0
2.132443045E0,2.830500007E-1,-5.650500059E-1,9.337050438E0,9.358413845E0
2.134910852E0,2.639999986E-1,-5.449500084E-1,9.337050438E0,9.356664865E0
2.137380412E0,2.639999986E-1,-5.650500059E-1,9.298950195E0,9.319841857E0
2.139849987E0,2.449500114E-1,-5.449500084E-1,9.298950195E0,9.318124584E0
2.142318563E0,2.639999986E-1,-5.650500059E-1,9.261000633E0,9.281977712E0
2.144787140E0,2.449500114E-1,-5.449500084E-1,9.261000633E0,9.280253431E0
2.147256526E0,2.639999986E-1,-5.650500059E-1,9.222000122E0,9.243065712E0
2.149725911E0,2.449500114E-1,-5.449500084E-1,9.222000122E0,9.241334172E0
2.152195962E0,2.639999986E-1,-5.650500059E-1,9.184050560E0,9.205202996E0
2.154666001E0,2.449500114E-1,-5.449500084E-1,9.184050560E0,9.203464332E0
2.157134308E0,2.639999986E-1,-5.650500059E-1,9.164999962E0,9.186196264E0
2.159602617E0,2.260500044E-1,-5.449500084E-1,9.184050560E0,9.202980702E0
2.162070886E0,2.449500114E-1,-5.650500059E-1,9.164999962E0,9.185668529E0
2.164539155E0,2.059500068E-1,-5.650500059E-1,9.202950478E0,9.222580680E0
2.167009040E0,2.260500044E-1,-6.030000448E-1,9.202950478E0,9.225454198E0
2.169478925E0,1.680000126E-1,-6.030000448E-1,9.241950035E0,9.263124392E0
2.171948270E0,1.489500105E-1,-6.220500469E-1,9.261000633E0,9.283063347E0
2.174417617E0,1.110000089E-1,-6.220500469E-1,9.318000793E0,9.339400733E0
2.176886116E0,9.105000645E-2,-6.600000262E-1,9.337050438E0,9.360790619E0
2.179354617E0,5.295000225E-2,-6.600000262E-1,9.394950867E0,9.418253847E0
2.181822924E0,5.295000225E-2,-6.990000606E-1,9.414000511E0,9.440064111E0
2.184291231E0,1.500000060E-2,-6.990000606E-1,9.471000671E0,9.496772073E0
2.186758924E0,1.500000060E-2,-7.369500399E-1,9.490950584E0,9.519530627E0
2.189226617E0,-3.000000026E-3,-7.560000420E-1,9.547950745E0,9.577834227E0
2.191695040E0,-3.000000026E-3,-8.140500188E-1,9.547950745E0,9.582590978E0
2.194163463E0,-2.295000106E-2,-8.329500556E-1,9.586050034E0,9.622197657E0
2.196632847E0,-2.295000106E-2,-8.899500370E-1,9.586050034E0,9.627299363E0
2.199102232E0,-4.200000316E-2,-9.090000391E-1,9.604950905E0,9.647959730E0
2.201569307E0,-4.200000316E-2,-9.480000734E-1,9.586050034E0,9.632903165E0
2.204036386E0,-6.105000153E-2,-9.480000734E-1,9.604950905E0,9.651813981E0
2.206505463E0,-4.200000316E-2,-9.859500527E-1,9.586050034E0,9.636711926E0
2.208974540E0,-6.105000153E-2,-9.859500527E-1,9.586050034E0,9.636813781E0
2.211442375E0,-4.200000316E-2,-1.024049997E0,9.547950745E0,9.602801978E0
2.213910222E0,-6.105000153E-2,-1.024049997E0,9.547950745E0,9.602904192E0
2.216380532E0,-4.200000316E-2,-1.042950034E0,9.510000229E0,9.567111013E0
2.218850837E0,-6.105000153E-2,-1.042950034E0,9.510000229E0,9.567213608E0
2.221320837E0,-2.295000106E-2,-1.081950068E0,9.471000671E0,9.532627989E0
2.223790838E0,-4.200000316E-2,-1.081950068E0,9.490950584E0,9.552513960E0
2.226261607E0,-4.200000316E-2,-1.101000071E0,9.471000671E0,9.534873826E0
2.228732376E0,-6.105000153E-2,-1.081950068E0,9.490950584E0,9.552616712E0
2.231201143E0,-4.200000316E-2,-1.101000071E0,9.471000671E0,9.534873826E0
2.233669914E0,-6.105000153E-2,-1.081950068E0,9.490950584E0,9.552616712E0
2.236138569E0,-2.295000106E-2,-1.101000071E0,9.471000671E0,9.534808943E0
2.238607222E0,-4.200000316E-2,-1.081950068E0,9.471000671E0,9.532692887E0
2.241077657E0,-3.000000026E-3,-1.081950068E0,9.433050156E0,9.494896534E0
2.243548118E0,-2.295000106E-2,-1.042950034E0,9.433050156E0,9.490558820E0
2.246017770E0,-3.000000026E-3,-1.042950034E0,9.394950867E0,9.452663940E0
2.248487425E0,-2.295000106E-2,-1.004999995E0,9.394950867E0,9.448579442E0
2.250957271E0,-3.000000026E-3,-1.004999995E0,9.376049995E0,9.429758613E0
2.253427118E0,-2.295000106E-2,-9.670500755E-1,9.394950867E0,9.444618274E0
2.255895611E0,-3.000000026E-3,-9.670500755E-1,9.376049995E0,9.425789535E0
2.258364112E0,-2.295000106E-2,-9.280500412E-1,9.394950867E0,9.440704707E0
2.260833498E0,-3.000000026E-3,-9.280500412E-1,9.394950867E0,9.440677289E0
2.263302881E0,-2.295000106E-2,-8.899500370E-1,9.433050156E0,9.474965594E0
2.265772535E0,-3.000000026E-3,-8.899500370E-1,9.433050156E0,9.474938275E0
2.268242190E0,-2.295000106E-2,-8.710500598E-1,9.451950073E0,9.492029029E0
2.270710197E0,-3.000000026E-3,-8.899500370E-1,9.433050156E0,9.474938275E0
2.273178198E0,-2.295000106E-2,-8.710500598E-1,9.451950073E0,9.492029029E0
2.275647314E0,-3.000000026E-3,-8.899500370E-1,9.433050156E0,9.474938275E0
2.278116429E0,-2.295000106E-2,-8.710500598E-1,9.433050156E0,9.473209073E0
2.280584235E0,-3.000000026E-3,-8.899500370E-1,9.394950867E0,9.437008099E0
2.283052044E0,-2.295000106E-2,-8.710500598E-1,9.414000511E0,9.454240347E0
2.285522700E0,-3.000000026E-3,-8.899500370E-1,9.394950867E0,9.437008099E0
2.287993353E0,-2.295000106E-2,-8.520000577E-1,9.414000511E0,9.452504241E0
2.290460696E0,-3.000000026E-3,-8.710500598E-1,9.414000511E0,9.454212967E0
2.292928045E0,-2.295000106E-2,-8.329500556E-1,9.451950073E0,9.488608575E0
2.295397585E0,-3.000000026E-3,-8.329500556E-1,9.451950073E0,9.488581294E0
2.297867122E0,-2.295000106E-2,-8.140500188E-1,9.471000671E0,9.505948551E0
2.300336332E0,-2.295000106E-2,-8.329500556E-1,9.451950073E0,9.488608575E0
2.302805563E0,-4.200000316E-2,-8.140500188E-1,9.471000671E0,9.506013631E0
2.305274641E0,-4.200000316E-2,-8.329500556E-1,9.433050156E0,9.469847149E0
2.307743718E0,-6.105000153E-2,-8.140500188E-1,9.433050156E0,9.468307123E0
2.310210987E0,-4.200000316E-2,-8.329500556E-1,9.376049995E0,9.413069813E0
2.312678256E0,-6.105000153E-2,-8.140500188E-1,9.355950356E0,9.391496771E0
2.315146397E0,-4.200000316E-2,-8.329500556E-1,9.318000793E0,9.355250322E0
2.317614550E0,-6.105000153E-2,-8.140500188E-1,9.318000793E0,9.353691428E0
2.320083934E0,-2.295000106E-2,-8.329500556E-1,9.298950195E0,9.336209468E0
2.322553319E0,-4.200000316E-2,-8.140500188E-1,9.318000793E0,9.353586490E0
2.325022203E0,-3.000000026E-3,-8.520000577E-1,9.298950195E0,9.337900612E0
2.327491088E0,-2.295000106E-2,-8.329500556E-1,9.337050438E0,9.374158276E0
2.329960709E0,-2.295000106E-2,-8.520000577E-1,9.318000793E0,9.356899571E0
2.332430286E0,-4.200000316E-2,-8.329500556E-1,9.337050438E0,9.374224271E0
2.334901786E0,-4.200000316E-2,-8.520000577E-1,9.318000793E0,9.356965688E0
2.337373285E0,-6.105000153E-2,-8.329500556E-1,9.337050438E0,9.374328977E0
2.339843130E0,-4.200000316E-2,-8.520000577E-1,9.298950195E0,9.337994583E0
2.342312977E0,-6.105000153E-2,-8.329500556E-1,9.298950195E0,9.336380864E0
2.344783156E0,-2.295000106E-2,-8.520000577E-1,9.261000633E0,9.300137823E0
2.347253347E0,-4.200000316E-2,-8.329500556E-1,9.261000633E0,9.298478506E0
2.349723347E0,-3.000000026E-3,-8.520000577E-1,9.241950035E0,9.281139669E0
2.352193348E0,-2.295000106E-2,-8.329500556E-1,9.261000633E0,9.298411973E0
2.354660692E0,-3.000000026E-3,-8.710500598E-1,9.241950035E0,9.282907823E0
2.357128039E0,-2.295000106E-2,-8.710500598E-1,9.280050278E0,9.320868418E0
2.359598536E0,-3.000000026E-3,-8.899500370E-1,9.280050278E0,9.322625876E0
2.362069035E0,-2.295000106E-2,-8.710500598E-1,9.318000793E0,9.358653413E0
2.364533762E0,-3.000000026E-3,-8.899500370E-1,9.298950195E0,9.341439654E0
2.366998497E0,-2.295000106E-2,-8.710500598E-1,9.318000793E0,9.358653413E0
2.369465729E0,-3.000000026E-3,-8.899500370E-1,9.298950195E0,9.341439654E0
2.371932958E0,-2.295000106E-2,-8.710500598E-1,9.318000793E0,9.358653413E0
2.374403425E0,-3.000000026E-3,-8.899500370E-1,9.280050278E0,9.322625876E0
2.376873886E0,-2.295000106E-2,-8.710500598E-1,9.298950195E0,9.339685736E0
2.379342961E0,-3.000000026E-3,-8.899500370E-1,9.280050278E0,9.322625876E0
2.381812040E0,-2.295000106E-2,-8.710500598E-1,9.298950195E0,9.339685736E0
2.384282695E0,-3.000000026E-3,-8.899500370E-1,9.280050278E0,9.322625876E0
2.386753348E0,-2.295000106E-2,-8.710500598E-1,9.318000793E0,9.358653413E0
2.389221923E0,-3.000000026E-3,-9.090000391E-1,9.318000793E0,9.362234181E0
2.391690502E0,-2.295000106E-2,-9.090000391E-1,9.355950356E0,9.400032704E0
2.394159155E0,-3.000000026E-3,-9.280500412E-1,9.355950356E0,9.401866460E0
2.396627808E0,-3.000000026E-3,-9.090000391E-1,9.394950867E0,9.438823648E0
2.399098578E0,1.500000060E-2,-9.280500412E-1,9.376049995E0,9.421879611E0
2.401569347E0,-3.000000026E-3,-9.090000391E-1,9.394950867E0,9.438823648E0
2.404038533E0,1.500000060E-2,-9.280500412E-1,9.376049995E0,9.421879611E0
2.406507726E0,-3.000000026E-3,-9.090000391E-1,9.394950867E0,9.438823648E0
2.408978535E0,1.500000060E-2,-9.280500412E-1,9.376049995E0,9.421879611E0
2.411449342E0,-3.000000026E-3,-9.090000391E-1,9.394950867E0,9.438823648E0
2.413919611E0,1.500000060E-2,-9.280500412E-1,9.376049995E0,9.421879611E0
2.416389880E0,-3.000000026E-3,-9.090000391E-1,9.414000511E0,9.457784925E0
2.418859145E0,1.500000060E-2,-9.280500412E-1,9.414000511E0,9.459646267E0
2.421328414E0,-3.000000026E-3,-9.090000391E-1,9.451950073E0,9.495559502E0
2.423796991E0,1.500000060E-2,-9.280500412E-1,9.451950073E0,9.497413441E0
2.426265568E0,-3.000000026E-3,-9.090000391E-1,9.490950584E0,9.534381630E0
2.428734800E0,1.500000060E-2,-9.280500412E-1,9.490950584E0,9.536228021E0
2.431204029E0,1.500000060E-2,-9.090000391E-1,9.510000229E0,9.553355977E0
2.433674545E0,3.405000269E-2,-9.280500412E-1,9.490950584E0,9.536277013E0
2.436145046E0,3.405000269E-2,-9.090000391E-1,9.490950584E0,9.534441959E0
2.438615660E0,5.295000225E-2,-9.280500412E-1,9.451950073E0,9.497549198E0
2.441086277E0,3.405000269E-2,-9.090000391E-1,9.451950073E0,9.495620078E0
2.443556083E0,5.295000225E-2,-9.480000734E-1,9.414000511E0,9.461760590E0
2.446025892E0,5.295000225E-2,-9.280500412E-1,9.433050156E0,9.478740202E0
2.448494651E0,7.200000435E-2,-9.480000734E-1,9.414000511E0,9.461886375E0
2.450963420E0,5.295000225E-2,-9.280500412E-1,9.433050156E0,9.478740202E0
2.453430959E0,7.200000435E-2,-9.480000734E-1,9.433050156E0,9.480839803E0
2.455898498E0,5.295000225E-2,-9.280500412E-1,9.471000671E0,9.516508514E0
2.458368960E0,7.200000435E-2,-9.480000734E-1,9.471000671E0,9.518599784E0
2.460839421E0,5.295000225E-2,-9.280500412E-1,9.510000229E0,9.555322335E0
2.463310209E0,7.200000435E-2,-9.480000734E-1,9.490950584E0,9.538450143E0
2.465781016E0,5.295000225E-2,-9.280500412E-1,9.510000229E0,9.555322335E0
2.468251438E0,7.200000435E-2,-9.670500755E-1,9.490950584E0,9.540362302E0
2.470721863E0,5.295000225E-2,-9.670500755E-1,9.490950584E0,9.540237552E0
2.473192171E0,7.200000435E-2,-1.004999995E0,9.451950073E0,9.505502048E0
2.475662478E0,5.295000225E-2,-1.004999995E0,9.451950073E0,9.505376841E0
2.478130694E0,7.200000435E-2,-1.042950034E0,9.414000511E0,9.471870692E0
2.480598887E0,5.295000225E-2,-1.042950034E0,9.433050156E0,9.490678781E0
2.483070235E0,7.200000435E-2,-1.081950068E0,9.414000511E0,9.476244276E0
2.485541580E0,5.295000225E-2,-1.081950068E0,9.451950073E0,9.513820465E0
2.488012655E0,7.200000435E-2,-1.101000071E0,9.451950073E0,9.516130797E0
2.490483734E0,5.295000225E-2,-1.081950068E0,9.490950584E0,9.552568380E0
2.492953132E0,7.200000435E-2,-1.120050073E0,9.471000671E0,9.537271616E0
2.495422517E0,5.295000225E-2,-1.101000071E0,9.490950584E0,9.554744782E0
2.497891478E0,7.200000435E-2,-1.120050073E0,9.471000671E0,9.537271616E0
2.500360439E0,5.295000225E-2,-1.101000071E0,9.471000671E0,9.534928347E0
2.502832134E0,7.200000435E-2,-1.120050073E0,9.433050156E0,9.499585854E0
2.505303825E0,5.295000225E-2,-1.101000071E0,9.433050156E0,9.497233286E0
2.507773987E0,5.295000225E-2,-1.120050073E0,9.394950867E0,9.461628700E0
2.510244142E0,3.405000269E-2,-1.101000071E0,9.394950867E0,9.459305595E0
2.512713180E0,5.295000225E-2,-1.120050073E0,9.376049995E0,9.442861292E0
2.515182219E0,3.405000269E-2,-1.101000071E0,9.394950867E0,9.459305595E0
2.517651488E0,5.295000225E-2,-1.120050073E0,9.376049995E0,9.442861292E0
2.520120757E0,3.405000269E-2,-1.101000071E0,9.414000511E0,9.478225898E0
2.522590103E0,5.295000225E-2,-1.120050073E0,9.414000511E0,9.480544367E0
2.525059450E0,3.405000269E-2,-1.101000071E0,9.433050156E0,9.497146719E0
2.527528102E0,5.295000225E-2,-1.120050073E0,9.414000511E0,9.480544367E0
2.529996757E0,3.405000269E-2,-1.101000071E0,9.433050156E0,9.497146719E0
2.532466450E0,5.295000225E-2,-1.120050073E0,9.394950867E0,9.461628700E0
2.534936141E0,3.405000269E-2,-1.101000071E0,9.394950867E0,9.459305595E0
2.537408753E0,3.405000269E-2,-1.120050073E0,9.355950356E0,9.422816916E0
2.539881368E0,1.500000060E-2,-1.101000071E0,9.355950356E0,9.420521918E0
2.542348903E0,1.500000060E-2,-1.101000071E0,9.318000793E0,9.382833524E0
2.544816444E0,-3.000000026E-3,-1.081950068E0,9.337050438E0,9.399528490E0
2.547283484E0,1.500000060E-2,-1.081950068E0,9.318000793E0,9.380617236E0
2.549750521E0,-3.000000026E-3,-1.042950034E0,9.337050438E0,9.395119193E0
2.552216690E0,1.500000060E-2,-1.063050032E0,9.337050438E0,9.397383213E0
2.554682883E0,-3.000000026E-3,-1.042950034E0,9.376049995E0,9.433878698E0
2.557148690E0,1.500000060E-2,-1.063050032E0,9.355950356E0,9.416162033E0
2.559614497E0,-3.000000026E-3,-1.042950034E0,9.376049995E0,9.433878698E0
2.562081883E0,1.500000060E-2,-1.063050032E0,9.355950356E0,9.416162033E0
2.564549266E0,-3.000000026E-3,-1.042950034E0,9.376049995E0,9.433878698E0
2.567016963E0,1.500000060E-2,-1.063050032E0,9.337050438E0,9.397383213E0
2.569484656E0,-3.000000026E-3,-1.042950034E0,9.318000793E0,9.376187528E0
2.571955617E0,-3.000000026E-3,-1.063050032E0,9.261000633E0,9.321814045E0
2.574426578E0,-2.295000106E-2,-1.042950034E0,9.261000633E0,9.319571031E0
2.576897924E0,-3.000000026E-3,-1.063050032E0,9.241950035E0,9.302887983E0
2.579369271E0,-2.295000106E-2,-1.042950034E0,9.261000633E0,9.319571031E0
2.581839885E0,-2.295000106E-2,-1.063050032E0,9.241950035E0,9.302915808E0
2.584310502E0,-4.200000316E-2,-1.042950034E0,9.280050278E0,9.338567445E0
2.586783157E0,-4.200000316E-2,-1.063050032E0,9.298950195E0,9.359610788E0
2.589255810E0,-6.105000153E-2,-1.042950034E0,9.355950356E0,9.414100006E0
2.591727193E0,-4.200000316E-2,-1.063050032E0,9.355950356E0,9.416243753E0
2.594198578E0,-6.105000153E-2,-1.042950034E0,9.376049995E0,9.434075757E0
2.596670271E0,-4.200000316E-2,-1.063050032E0,9.355950356E0,9.416243753E0
2.599141964E0,-6.105000153E-2,-1.042950034E0,9.376049995E0,9.434075757E0
2.601609614E0,-4.200000316E-2,-1.063050032E0,9.337050438E0,9.397465097E0
2.604077271E0,-6.105000153E-2,-1.042950034E0,9.337050438E0,9.395317065E0
2.606546542E0,-2.295000106E-2,-1.063050032E0,9.298950195E0,9.359544690E0
2.609015809E0,-4.200000316E-2,-1.042950034E0,9.318000793E0,9.376281116E0
2.611482996E0,-3.000000026E-3,-1.063050032E0,9.298950195E0,9.359517034E0
2.613950189E0,-2.295000106E-2,-1.042950034E0,9.337050438E0,9.395146745E0
2.616416497E0,-3.000000026E-3,-1.063050032E0,9.355950356E0,9.416150563E0
2.618882806E0,-2.295000106E-2,-1.042950034E0,9.414000511E0,9.471624840E0
2.621351422E0,-3.000000026E-3,-1.063050032E0,9.433050156E0,9.492761432E0
2.623820037E0,-2.295000106E-2,-1.042950034E0,9.490950584E0,9.548110518E0
2.626289098E0,-3.000000026E-3,-1.063050032E0,9.490950584E0,9.550299857E0
2.628758175E0,-2.295000106E-2,-1.042950034E0,9.510000229E0,9.567046348E0
2.631226212E0,-3.000000026E-3,-1.063050032E0,9.490950584E0,9.550299857E0
2.633694251E0,-2.295000106E-2,-1.042950034E0,9.490950584E0,9.548110518E0
2.636162983E0,-3.000000026E-3,-1.063050032E0,9.451950073E0,9.511542701E0
2.638631714E0,-2.295000106E-2,-1.042950034E0,9.433050156E0,9.490558820E0
2.641100809E0,-3.000000026E-3,-1.063050032E0,9.394950867E0,9.454902758E0
2.643569886E0,-2.295000106E-2,-1.042950034E0,9.414000511E0,9.471624840E0
2.646037731E0,-3.000000026E-3,-1.063050032E0,9.394950867E0,9.454902758E0
2.648505578E0,-2.295000106E-2,-1.042950034E0,9.433050156E0,9.490558820E0
2.650974040E0,-3.000000026E-3,-1.063050032E0,9.433050156E0,9.492761432E0
2.653442501E0,-2.295000106E-2,-1.042950034E0,9.471000671E0,9.528280285E0
2.655911424E0,-3.000000026E-3,-1.063050032E0,9.471000671E0,9.530474180E0
2.658380347E0,-2.295000106E-2,-1.042950034E0,9.510000229E0,9.567046348E0
2.660847269E0,-3.000000026E-3,-1.063050032E0,9.490950584E0,9.550299857E0
2.663314194E0,-2.295000106E-2,-1.042950034E0,9.510000229E0,9.567046348E0
2.665782195E0,-3.000000026E-3,-1.063050032E0,9.490950584E0,9.550299857E0
2.668250194E0,-2.295000106E-2,-1.042950034E0,9.490950584E0,9.548110518E0
2.670716992E0,-3.000000026E-3,-1.063050032E0,9.451950073E0,9.511542701E0
2.673183801E0,-2.295000106E-2,-1.042950034E0,9.451950073E0,9.509344439E0
2.675652686E0,-3.000000026E-3,-1.063050032E0,9.433050156E0,9.492761432E0
2.678121569E0,-2.295000106E-2,-1.042950034E0,9.451950073E0,9.509344439E0
2.680590338E0,-3.000000026E-3,-1.063050032E0,9.433050156E0,9.492761432E0
2.683059109E0,-2.295000106E-2,-1.042950034E0,9.471000671E0,9.528280285E0
2.685526059E0,-3.000000026E-3,-1.063050032E0,9.471000671E0,9.530474180E0
2.687993022E0,-2.295000106E-2,-1.063050032E0,9.510000229E0,9.569258405E0
2.690461599E0,-3.000000026E-3,-1.081950068E0,9.490950584E0,9.552422098E0
2.692930176E0,-2.295000106E-2,-1.063050032E0,9.510000229E0,9.569258405E0
2.695398636E0,-3.000000026E-3,-1.081950068E0,9.490950584E0,9.552422098E0
2.697867099E0,-2.295000106E-2,-1.063050032E0,9.490950584E0,9.550326961E0
2.700337759E0,-3.000000026E-3,-1.081950068E0,9.451950073E0,9.513673588E0
2.702808410E0,-2.295000106E-2,-1.063050032E0,9.451950073E0,9.511569916E0
2.705278217E0,-3.000000026E-3,-1.081950068E0,9.414000511E0,9.475971221E0
2.707748026E0,-2.295000106E-2,-1.063050032E0,9.433050156E0,9.492788700E0
2.710220528E0,-3.000000026E-3,-1.081950068E0,9.414000511E0,9.475971221E0
2.712693027E0,-2.295000106E-2,-1.063050032E0,9.451950073E0,9.511569916E0
2.715161745E0,-3.000000026E-3,-1.081950068E0,9.451950073E0,9.513673588E0
2.717630478E0,-2.295000106E-2,-1.063050032E0,9.490950584E0,9.550326961E0
2.720098670E0,-3.000000026E-3,-1.081950068E0,9.471000671E0,9.532600834E0
2.722566863E0,-2.295000106E-2,-1.063050032E0,9.510000229E0,9.569258405E0
2.725034209E0,-3.000000026E-3,-1.081950068E0,9.490950584E0,9.552422098E0
2.727501554E0,-2.295000106E-2,-1.063050032E0,9.510000229E0,9.569258405E0
2.729971422E0,-2.295000106E-2,-1.081950068E0,9.490950584E0,9.552449196E0
2.732441305E0,-4.200000316E-2,-1.063050032E0,9.510000229E0,9.569323055E0
2.734910189E0,-4.200000316E-2,-1.081950068E0,9.490950584E0,9.552513960E0
2.737379074E0,-6.105000153E-2,-1.042950034E0,9.510000229E0,9.567213608E0
2.739848806E0,-2.295000106E-2,-1.063050032E0,9.490950584E0,9.550326961E0
2.742318535E0,-4.200000316E-2,-1.042950034E0,9.510000229E0,9.567111013E0
2.744786924E0,-3.000000026E-3,-1.063050032E0,9.510000229E0,9.569231355E0
2.747255349E0,-2.295000106E-2,-1.042950034E0,9.547950745E0,9.604771465E0
2.749724580E0,-3.000000026E-3,-1.063050032E0,9.547950745E0,9.606947892E0
2.752193809E0,-3.000000026E-3,-1.024049997E0,9.567000389E0,9.621651825E0
2.754662578E0,1.500000060E-2,-1.024049997E0,9.547950745E0,9.602721844E0
2.757131349E0,-3.000000026E-3,-9.859500527E-1,9.567000389E0,9.617671389E0
2.759599993E0,1.500000060E-2,-1.004999995E0,9.547950745E0,9.600709006E0
2.762068646E0,-3.000000026E-3,-9.859500527E-1,9.567000389E0,9.617671389E0
2.764537070E0,1.500000060E-2,-9.859500527E-1,9.529050827E0,9.579933829E0
2.767005493E0,-3.000000026E-3,-9.670500755E-1,9.529050827E0,9.577995851E0
2.769474301E0,1.500000060E-2,-9.859500527E-1,9.490950584E0,9.542036759E0
2.771943108E0,-3.000000026E-3,-9.670500755E-1,9.490950584E0,9.540091082E0
2.774411429E0,1.500000060E-2,-9.670500755E-1,9.451950073E0,9.501303649E0
2.776879738E0,-3.000000026E-3,-9.480000734E-1,9.451950073E0,9.499372260E0
2.779347276E0,1.500000060E-2,-9.480000734E-1,9.414000511E0,9.461624320E0
2.781814815E0,-3.000000026E-3,-9.090000391E-1,9.414000511E0,9.457784925E0
2.784283276E0,1.500000060E-2,-9.090000391E-1,9.376049995E0,9.420022271E0
2.786751737E0,-3.000000026E-3,-8.899500370E-1,9.376049995E0,9.418191630E0
2.789220517E0,1.500000060E-2,-8.899500370E-1,9.337050438E0,9.379378815E0
2.791689286E0,-3.000000026E-3,-8.520000577E-1,9.337050438E0,9.375842574E0
2.794159248E0,1.500000060E-2,-8.520000577E-1,9.298950195E0,9.337912177E0
2.796629209E0,-3.000000026E-3,-8.140500188E-1,9.280050278E0,9.315686748E0
2.799096746E0,1.500000060E-2,-8.140500188E-1,9.241950035E0,9.277744493E0
2.801564287E0,-3.000000026E-3,-7.750500441E-1,9.241950035E0,9.274392272E0
2.804033657E0,1.500000060E-2,-7.939500213E-1,9.202950478E0,9.237146698E0
2.806503040E0,-3.000000026E-3,-7.560000420E-1,9.184050560E0,9.215114202E0
2.808970924E0,-3.000000026E-3,-7.750500441E-1,9.145950317E0,9.178731872E0
2.811438809E0,-2.295000106E-2,-7.369500399E-1,9.145950317E0,9.175621465E0
2.813908926E0,-2.295000106E-2,-7.560000420E-1,9.106950760E0,9.138304816E0
2.816379041E0,-4.200000316E-2,-7.369500399E-1,9.127050400E0,9.156850352E0
2.818850011E0,-4.200000316E-2,-7.560000420E-1,9.106950760E0,9.138372514E0
2.821320974E0,-6.105000153E-2,-7.369500399E-1,9.127050400E0,9.156957544E0
2.823786932E0,-4.200000316E-2,-7.560000420E-1,9.106950760E0,9.138372514E0
2.826252897E0,-6.105000153E-2,-7.369500399E-1,9.127050400E0,9.156957544E0
2.828722168E0,-4.200000316E-2,-7.560000420E-1,9.106950760E0,9.138372514E0
2.831191435E0,-6.105000153E-2,-7.369500399E-1,9.145950317E0,9.175795860E0
2.833659857E0,-4.200000316E-2,-7.560000420E-1,9.145950317E0,9.177238543E0
2.836128282E0,-6.105000153E-2,-7.369500399E-1,9.184050560E0,9.213772688E0
2.838598783E0,-4.200000316E-2,-7.560000420E-1,9.184050560E0,9.215209425E0
2.841069282E0,-6.105000153E-2,-7.369500399E-1,9.222000122E0,9.251600333E0
2.843536818E0,-4.200000316E-2,-7.560000420E-1,9.222000122E0,9.253031196E0
2.846004359E0,-6.105000153E-2,-7.369500399E-1,9.261000633E0,9.290476586E0
2.848470482E0,-4.200000316E-2,-7.560000420E-1,9.261000633E0,9.291901463E0
2.850936599E0,-6.105000153E-2,-7.369500399E-1,9.318000793E0,9.347297002E0
2.853405215E0,-4.200000316E-2,-7.560000420E-1,9.318000793E0,9.348713219E0
2.855873828E0,-6.105000153E-2,-7.369500399E-1,9.376049995E0,9.405165388E0
2.858339865E0,-4.200000316E-2,-7.560000420E-1,9.394950867E0,9.425412556E0
2.860805906E0,-6.105000153E-2,-7.369500399E-1,9.433050156E0,9.461990155E0
2.863273868E0,-4.200000316E-2,-7.560000420E-1,9.433050156E0,9.463389208E0
2.865741829E0,-6.105000153E-2,-7.369500399E-1,9.451950073E0,9.480832382E0
2.868208173E0,-4.200000316E-2,-7.560000420E-1,9.433050156E0,9.463389208E0
2.870674522E0,-6.105000153E-2,-7.369500399E-1,9.451950073E0,9.480832382E0
2.873143100E0,-4.200000316E-2,-7.560000420E-1,9.433050156E0,9.463389208E0
2.875611675E0,-6.105000153E-2,-7.369500399E-1,9.451950073E0,9.480832382E0
2.878079083E0,-4.200000316E-2,-7.560000420E-1,9.414000511E0,9.444400759E0
2.880546508E0,-6.105000153E-2,-7.369500399E-1,9.433050156E0,9.461990155E0
2.883015277E0,-2.295000106E-2,-7.560000420E-1,9.414000511E0,9.444335254E0
2.885484046E0,-4.200000316E-2,-7.369500399E-1,9.433050156E0,9.461886419E0
2.887952929E0,-3.000000026E-3,-7.560000420E-1,9.414000511E0,9.444307846E0
2.890421814E0,-2.295000106E-2,-7.369500399E-1,9.433050156E0,9.461821035E0
2.892889506E0,-3.000000026E-3,-7.560000420E-1,9.414000511E0,9.444307846E0
2.895357199E0,-2.295000106E-2,-7.369500399E-1,9.433050156E0,9.461821035E0
2.897827201E0,-3.000000026E-3,-7.560000420E-1,9.394950867E0,9.425319456E0
2.900297200E0,-2.295000106E-2,-7.369500399E-1,9.394950867E0,9.423838064E0
2.902767699E0,-3.000000026E-3,-7.560000420E-1,9.376049995E0,9.406479606E0
2.905238200E0,-2.295000106E-2,-7.369500399E-1,9.394950867E0,9.423838064E0
2.907707544E0,-3.000000026E-3,-7.560000420E-1,9.376049995E0,9.406479606E0
2.910176891E0,-2.295000106E-2,-7.369500399E-1,9.394950867E0,9.423838064E0
2.912645661E0,-3.000000026E-3,-7.560000420E-1,9.376049995E0,9.406479606E0
2.915114430E0,-2.295000106E-2,-7.369500399E-1,9.394950867E0,9.423838064E0
2.917586471E0,-3.000000026E-3,-7.560000420E-1,9.376049995E0,9.406479606E0
2.920058508E0,-2.295000106E-2,-7.369500399E-1,9.394950867E0,9.423838064E0
2.922530655E0,-3.000000026E-3,-7.369500399E-1,9.376049995E0,9.404967723E0
2.925002772E0,-2.295000106E-2,-6.990000606E-1,9.394950867E0,9.420946321E0
2.927470499E0,-3.000000026E-3,-7.180500627E-1,9.376049995E0,9.403505645E0
2.929938232E0,-2.295000106E-2,-6.790500283E-1,9.394950867E0,9.419487111E0
2.932404848E0,-3.000000026E-3,-6.790500283E-1,9.376049995E0,9.400608037E0
2.934871463E0,-2.295000106E-2,-6.409500241E-1,9.394950867E0,9.416817160E0
2.937340528E0,-3.000000026E-3,-6.600000262E-1,9.376049995E0,9.399251170E0
2.939809603E0,-2.295000106E-2,-6.409500241E-1,9.394950867E0,9.416817160E0
2.942280180E0,-3.000000026E-3,-6.600000262E-1,9.376049995E0,9.399251170E0
2.944750757E0,-2.295000106E-2,-6.409500241E-1,9.414000511E0,9.435822659E0
2.947216178E0,-3.000000026E-3,-6.600000262E-1,9.394950867E0,9.418105479E0
2.949681603E0,-2.295000106E-2,-6.409500241E-1,9.414000511E0,9.435822659E0
2.952147912E0,-3.000000026E-3,-6.600000262E-1,9.394950867E0,9.418105479E0
2.954614219E0,-2.295000106E-2,-6.409500241E-1,9.414000511E0,9.435822659E0
2.957084990E0,-3.000000026E-3,-6.600000262E-1,9.394950867E0,9.418105479E0
2.959555757E0,-2.295000106E-2,-6.409500241E-1,9.414000511E0,9.435822659E0
2.962022677E0,-3.000000026E-3,-6.600000262E-1,9.394950867E0,9.418105479E0
2.964489604E0,-2.295000106E-2,-6.409500241E-1,9.414000511E0,9.435822659E0
2.966957769E0,-3.000000026E-3,-6.790500283E-1,9.394950867E0,9.419459630E0
2.969425922E0,-2.295000106E-2,-6.790500283E-1,9.414000511E0,9.438487234E0
2.971891573E0,-3.000000026E-3,-6.990000606E-1,9.414000511E0,9.439916086E0
2.974357228E0,-2.295000106E-2,-6.790500283E-1,9.451950073E0,9.476338736E0
2.976826808E0,-2.295000106E-2,-6.990000606E-1,9.451950073E0,9.477789192E0
2.979296383E0,-4.200000316E-2,-6.790500283E-1,9.471000671E0,9.495405555E0
2.981765775E0,-4.200000316E-2,-6.990000606E-1,9.451950073E0,9.477854466E0
2.984235160E0,-6.105000153E-2,-6.790500283E-1,9.471000671E0,9.495508926E0
2.986704237E0,-2.295000106E-2,-6.990000606E-1,9.451950073E0,9.477789192E0
2.989173314E0,-4.200000316E-2,-6.790500283E-1,9.451950073E0,9.476404019E0
2.991639622E0,-4.200000316E-2,-6.990000606E-1,9.414000511E0,9.440009042E0
2.994105931E0,-6.105000153E-2,-6.790500283E-1,9.414000511E0,9.438656772E0
2.996576673E0,-2.295000106E-2,-7.180500627E-1,9.376049995E0,9.403533172E0
2.999047402E0,-4.200000316E-2,-6.990000606E-1,9.394950867E0,9.421011988E0
3.001515861E0,-3.000000026E-3,-7.180500627E-1,9.376049995E0,9.403505645E0
3.003984324E0,-2.295000106E-2,-6.990000606E-1,9.394950867E0,9.420946321E0
3.006452055E0,-3.000000026E-3,-7.180500627E-1,9.376049995E0,9.403505645E0
3.008919786E0,-2.295000106E-2,-6.990000606E-1,9.394950867E0,9.420946321E0
3.011389475E0,-3.000000026E-3,-7.180500627E-1,9.376049995E0,9.403505645E0
3.013859166E0,-2.295000106E-2,-6.990000606E-1,9.394950867E0,9.420946321E0
3.016330358E0,-3.000000026E-3,-7.180500627E-1,9.376049995E0,9.403505645E0
3.018801551E0,-2.295000106E-2,-6.990000606E-1,9.376049995E0,9.402097708E0
3.021270664E0,-3.000000026E-3,-7.180500627E-1,9.337050438E0,9.364620429E0
3.023739781E0,-2.295000106E-2,-6.990000606E-1,9.337050438E0,9.363206644E0
3.026208710E0,-2.295000106E-2,-7.180500627E-1,9.318000793E0,9.345654679E0
3.028677633E0,-4.200000316E-2,-6.990000606E-1,9.337050438E0,9.363272717E0
3.031147325E0,-3.000000026E-3,-7.180500627E-1,9.318000793E0,9.345626982E0
3.033617018E0,-2.295000106E-2,-6.990000606E-1,9.337050438E0,9.363206644E0
3.036084708E0,-3.000000026E-3,-7.180500627E-1,9.318000793E0,9.345626982E0
3.038552401E0,-2.295000106E-2,-6.790500283E-1,9.355950356E0,9.380588612E0
3.041022878E0,-3.000000026E-3,-6.790500283E-1,9.337050438E0,9.361710785E0
3.043493339E0,-2.295000106E-2,-6.600000262E-1,9.355950356E0,9.379228848E0
3.045962568E0,-3.000000026E-3,-6.790500283E-1,9.337050438E0,9.361710785E0
3.048431801E0,-2.295000106E-2,-6.600000262E-1,9.355950356E0,9.379228848E0
3.050899916E0,-3.000000026E-3,-6.790500283E-1,9.337050438E0,9.361710785E0
3.053368031E0,-2.295000106E-2,-6.600000262E-1,9.355950356E0,9.379228848E0
3.055835113E0,-3.000000026E-3,-6.790500283E-1,9.337050438E0,9.361710785E0
3.058302190E0,-2.295000106E-2,-6.600000262E-1,9.355950356E0,9.379228848E0
3.060771153E0,-3.000000026E-3,-6.790500283E-1,9.337050438E0,9.361710785E0
3.063240114E0,-2.295000106E-2,-6.600000262E-1,9.355950356E0,9.379228848E0
3.065707612E0,-3.000000026E-3,-6.790500283E-1,9.337050438E0,9.361710785E0
3.068175113E0,-2.295000106E-2,-6.600000262E-1,9.376049995E0,9.399278709E0
3.070644176E0,-3.000000026E-3,-6.790500283E-1,9.376049995E0,9.400608037E0
3.073113253E0,-2.295000106E-2,-6.600000262E-1,9.394950867E0,9.418132964E0
3.075583290E0,-3.000000026E-3,-6.790500283E-1,9.376049995E0,9.400608037E0
3.078053329E0,-2.295000106E-2,-6.600000262E-1,9.394950867E0,9.418132964E0
3.080520519E0,-3.000000026E-3,-6.790500283E-1,9.355950356E0,9.380561017E0
3.082987714E0,-2.295000106E-2,-6.600000262E-1,9.355950356E0,9.379228848E0
3.085455440E0,-3.000000026E-3,-6.790500283E-1,9.318000793E0,9.342711423E0
3.087923171E0,-2.295000106E-2,-6.600000262E-1,9.318000793E0,9.341373856E0
3.090391285E0,-3.000000026E-3,-6.790500283E-1,9.280050278E0,9.304861691E0
3.092859400E0,-2.295000106E-2,-6.600000262E-1,9.298950195E0,9.322371022E0
3.095327708E0,-3.000000026E-3,-6.790500283E-1,9.280050278E0,9.304861691E0
3.097796017E0,-2.295000106E-2,-6.600000262E-1,9.298950195E0,9.322371022E0
3.100264189E0,-3.000000026E-3,-6.790500283E-1,9.298950195E0,9.323711314E0
3.102732344E0,-2.295000106E-2,-6.600000262E-1,9.337050438E0,9.360375934E0
3.105199420E0,-3.000000026E-3,-6.790500283E-1,9.337050438E0,9.361710785E0
3.107666497E0,-2.295000106E-2,-6.600000262E-1,9.376049995E0,9.399278709E0
3.110136191E0,-3.000000026E-3,-6.790500283E-1,9.355950356E0,9.380561017E0
3.112605882E0,-2.295000106E-2,-6.600000262E-1,9.376049995E0,9.399278709E0
3.115075713E0,-3.000000026E-3,-6.790500283E-1,9.355950356E0,9.380561017E0
3.117545560E0,-2.295000106E-2,-6.600000262E-1,9.376049995E0,9.399278709E0
3.120010480E0,-3.000000026E-3,-6.790500283E-1,9.355950356E0,9.380561017E0
3.122475405E0,-3.000000026E-3,-6.790500283E-1,9.376049995E0,9.400608037E0
3.124939714E0,1.500000060E-2,-7.180500627E-1,9.355950356E0,9.383476325E0
3.127404021E0,-3.000000026E-3,-7.180500627E-1,9.376049995E0,9.403505645E0
3.129869422E0,1.500000060E-2,-7.560000420E-1,9.376049995E0,9.406491088E0
3.132334805E0,-3.000000026E-3,-7.560000420E-1,9.394950867E0,9.425319456E0
3.134800074E0,1.500000060E-2,-7.750500441E-1,9.376049995E0,9.408041299E0
3.137265345E0,-3.000000026E-3,-7.560000420E-1,9.394950867E0,9.425319456E0
3.139730383E0,1.500000060E-2,-7.750500441E-1,9.376049995E0,9.408041299E0
3.142195422E0,-3.000000026E-3,-7.560000420E-1,9.394950867E0,9.425319456E0
3.144660531E0,1.500000060E-2,-7.750500441E-1,9.376049995E0,9.408041299E0
3.147125646E0,-3.000000026E-3,-7.560000420E-1,9.376049995E0,9.406479606E0
3.149589337E0,1.500000060E-2,-7.750500441E-1,9.337050438E0,9.369174908E0
3.152053030E0,-3.000000026E-3,-7.560000420E-1,9.337050438E0,9.367606735E0
3.154518839E0,1.500000060E-2,-7.750500441E-1,9.298950195E0,9.331205833E0
3.156984646E0,-3.000000026E-3,-7.560000420E-1,9.298950195E0,9.329631279E0
3.159451809E0,1.500000060E-2,-7.750500441E-1,9.261000633E0,9.293387988E0
3.161919040E0,-3.000000026E-3,-7.560000420E-1,9.261000633E0,9.291807025E0
3.164384154E0,1.500000060E-2,-7.750500441E-1,9.241950035E0,9.274403917E0
3.166849271E0,-3.000000026E-3,-7.560000420E-1,9.261000633E0,9.291807025E0
3.169313887E0,1.500000060E-2,-7.750500441E-1,9.241950035E0,9.274403917E0
3.171778502E0,-3.000000026E-3,-7.560000420E-1,9.261000633E0,9.291807025E0
3.174243709E0,1.500000060E-2,-7.750500441E-1,9.241950035E0,9.274403917E0
3.176708902E0,-3.000000026E-3,-7.560000420E-1,9.261000633E0,9.291807025E0
3.179174171E0,-3.000000026E-3,-7.750500441E-1,9.241950035E0,9.274392272E0
3.181639440E0,-2.295000106E-2,-7.560000420E-1,9.261000633E0,9.291834883E0
3.184108980E0,-2.295000106E-2,-7.750500441E-1,9.241950035E0,9.274420183E0
3.186578517E0,-4.200000316E-2,-7.560000420E-1,9.261000633E0,9.291901463E0
3.189045745E0,-4.200000316E-2,-7.750500441E-1,9.261000633E0,9.293470789E0
3.191512978E0,-6.105000153E-2,-7.750500441E-1,9.280050278E0,9.312559414E0
3.193980979E0,-2.295000106E-2,-8.140500188E-1,9.261000633E0,9.296737969E0
3.196448978E0,-4.200000316E-2,-8.140500188E-1,9.280050278E0,9.315780944E0
3.198918671E0,-4.200000316E-2,-8.520000577E-1,9.261000633E0,9.300204343E0
3.201388364E0,-6.105000153E-2,-8.520000577E-1,9.280050278E0,9.319279176E0
3.203856342E0,-4.200000316E-2,-8.899500370E-1,9.280050278E0,9.322720001E0
3.206324343E0,-6.105000153E-2,-8.899500370E-1,9.318000793E0,9.360602382E0
3.208793229E0,-4.200000316E-2,-9.280500412E-1,9.318000793E0,9.364196691E0
3.211262112E0,-6.105000153E-2,-9.280500412E-1,9.355950356E0,9.402064190E0
3.213731189E0,-4.200000316E-2,-9.670500755E-1,9.355950356E0,9.405889480E0
3.216200266E0,-6.105000153E-2,-9.670500755E-1,9.394950867E0,9.444787702E0
3.218668771E0,-4.200000316E-2,-1.004999995E0,9.376049995E0,9.429851669E0
3.221137272E0,-6.105000153E-2,-1.004999995E0,9.394950867E0,9.448748800E0
3.223606156E0,-4.200000316E-2,-1.042950034E0,9.376049995E0,9.433971713E0
3.226075041E0,-6.105000153E-2,-1.042950034E0,9.394950867E0,9.452860607E0
3.228542154E0,-4.200000316E-2,-1.063050032E0,9.376049995E0,9.436214966E0
3.231009271E0,-6.105000153E-2,-1.042950034E0,9.394950867E0,9.452860607E0
3.233478518E0,-4.200000316E-2,-1.063050032E0,9.376049995E0,9.436214966E0
3.235947747E0,-6.105000153E-2,-1.042950034E0,9.394950867E0,9.452860607E0
3.238418055E0,-4.200000316E-2,-1.063050032E0,9.376049995E0,9.436214966E0
3.240888364E0,-6.105000153E-2,-1.042950034E0,9.414000511E0,9.471793785E0
3.243356477E0,-4.200000316E-2,-1.063050032E0,9.414000511E0,9.473924477E0
3.245824594E0,-6.105000153E-2,-1.042950034E0,9.451950073E0,9.509512714E0
3.248294431E0,-2.295000106E-2,-1.063050032E0,9.451950073E0,9.511569916E0
3.250764276E0,-4.200000316E-2,-1.042950034E0,9.471000671E0,9.528345213E0
3.253234160E0,-4.200000316E-2,-1.063050032E0,9.451950073E0,9.511634957E0
3.255704045E0,-6.105000153E-2,-1.042950034E0,9.471000671E0,9.528448226E0
3.258175122E0,-4.200000316E-2,-1.063050032E0,9.451950073E0,9.511634957E0
3.260646199E0,-6.105000153E-2,-1.042950034E0,9.471000671E0,9.528448226E0
3.263116348E0,-4.200000316E-2,-1.063050032E0,9.451950073E0,9.511634957E0
3.265586503E0,-6.105000153E-2,-1.042950034E0,9.471000671E0,9.528448226E0
3.268054463E0,-4.200000316E-2,-1.063050032E0,9.451950073E0,9.511634957E0
3.270522426E0,-6.105000153E-2,-1.042950034E0,9.471000671E0,9.528448226E0
3.272993043E0,-2.295000106E-2,-1.063050032E0,9.451950073E0,9.511569916E0
3.275463656E0,-4.200000316E-2,-1.042950034E0,9.471000671E0,9.528345213E0
3.277935839E0,-3.000000026E-3,-1.063050032E0,9.451950073E0,9.511542701E0
3.280407992E0,-2.295000106E-2,-1.042950034E0,9.471000671E0,9.528280285E0
3.282878029E0,-3.000000026E-3,-1.063050032E0,9.451950073E0,9.511542701E0
3.285348070E0,-2.295000106E-2,-1.024049997E0,9.471000671E0,9.526230042E0
3.287818955E0,-3.000000026E-3,-1.024049997E0,9.433050156E0,9.488473146E0
3.290289838E0,-2.295000106E-2,-9.859500527E-1,9.433050156E0,9.484464110E0
3.292759251E0,-3.000000026E-3,-9.859500527E-1,9.394950867E0,9.446544781E0
3.295228676E0,-2.295000106E-2,-9.670500755E-1,9.394950867E0,9.444618274E0
3.297696790E0,-3.000000026E-3,-9.859500527E-1,9.376049995E0,9.427747346E0
3.300164905E0,-2.295000106E-2,-9.480000734E-1,9.394950867E0,9.442686727E0
3.302632906E0,-3.000000026E-3,-9.670500755E-1,9.376049995E0,9.425789535E0
3.305100905E0,-2.295000106E-2,-9.280500412E-1,9.414000511E0,9.459662214E0
3.307568175E0,-3.000000026E-3,-9.480000734E-1,9.414000511E0,9.461612905E0
3.310035444E0,-2.295000106E-2,-9.280500412E-1,9.451950073E0,9.497429324E0
3.312506947E0,-3.000000026E-3,-9.480000734E-1,9.451950073E0,9.499372260E0
3.314978444E0,-2.295000106E-2,-9.280500412E-1,9.471000671E0,9.516388879E0
3.317448635E0,-3.000000026E-3,-9.480000734E-1,9.451950073E0,9.499372260E0
3.319918828E0,-2.295000106E-2,-9.280500412E-1,9.471000671E0,9.516388879E0
3.322388521E0,-2.295000106E-2,-9.480000734E-1,9.451950073E0,9.499399509E0
3.324858214E0,-4.200000316E-2,-9.280500412E-1,9.451950073E0,9.497494463E0
3.327329407E0,-3.000000026E-3,-9.480000734E-1,9.414000511E0,9.461612905E0
3.329800598E0,-2.295000106E-2,-9.280500412E-1,9.433050156E0,9.478620091E0
3.332270020E0,-3.000000026E-3,-9.480000734E-1,9.414000511E0,9.461612905E0
3.334739445E0,-2.295000106E-2,-9.280500412E-1,9.451950073E0,9.497429324E0
3.337209099E0,-3.000000026E-3,-9.480000734E-1,9.451950073E0,9.499372260E0
3.339678752E0,-2.295000106E-2,-9.480000734E-1,9.490950584E0,9.538206007E0
3.342150291E0,-3.000000026E-3,-9.670500755E-1,9.490950584E0,9.540091082E0
3.344621830E0,-2.295000106E-2,-9.670500755E-1,9.529050827E0,9.578022876E0
3.347090596E0,-3.000000026E-3,-9.859500527E-1,9.510000229E0,9.560973322E0
3.349559367E0,-2.295000106E-2,-9.670500755E-1,9.529050827E0,9.578022876E0
3.352029229E0,-3.000000026E-3,-1.004999995E0,9.490950584E0,9.544012625E0
3.354499074E0,-2.295000106E-2,-9.859500527E-1,9.471000671E0,9.522209719E0
3.356969382E0,-3.000000026E-3,-1.004999995E0,9.414000511E0,9.467493840E0
3.359439691E0,-2.295000106E-2,-9.859500527E-1,9.414000511E0,9.465517938E0
3.361912498E0,-2.295000106E-2,-1.004999995E0,9.376049995E0,9.429786064E0
3.364385305E0,-4.200000316E-2,-9.859500527E-1,9.376049995E0,9.427840422E0
3.366852518E0,-3.000000026E-3,-1.004999995E0,9.355950356E0,9.409773698E0
3.369319753E0,-2.295000106E-2,-9.859500527E-1,9.376049995E0,9.427774802E0
3.371790485E0,-3.000000026E-3,-1.004999995E0,9.376049995E0,9.429758613E0
3.374261214E0,-2.295000106E-2,-9.859500527E-1,9.414000511E0,9.465517938E0
3.376729558E0,-3.000000026E-3,-1.004999995E0,9.414000511E0,9.467493840E0
3.379197907E0,-2.295000106E-2,-9.859500527E-1,9.433050156E0,9.484464110E0
3.381665285E0,-2.295000106E-2,-1.004999995E0,9.414000511E0,9.467521181E0
3.384132670E0,-4.200000316E-2,-9.859500527E-1,9.414000511E0,9.465583296E0
3.386604364E0,-4.200000316E-2,-1.004999995E0,9.376049995E0,9.429851669E0
3.389076053E0,-6.105000153E-2,-9.859500527E-1,9.376049995E0,9.427944533E0
3.391546360E0,-4.200000316E-2,-1.004999995E0,9.337050438E0,9.391075544E0
3.394016669E0,-6.105000153E-2,-9.859500527E-1,9.355950356E0,9.407955764E0
3.396488055E0,-4.200000316E-2,-1.004999995E0,9.337050438E0,9.391075544E0
3.398959400E0,-6.105000153E-2,-9.859500527E-1,9.355950356E0,9.407955764E0
3.401431900E0,-4.200000316E-2,-1.004999995E0,9.355950356E0,9.409866952E0
3.403904401E0,-6.105000153E-2,-9.859500527E-1,9.414000511E0,9.465686992E0
3.406373744E0,-4.200000316E-2,-1.004999995E0,9.433050156E0,9.486528566E0
3.408843093E0,-6.105000153E-2,-9.859500527E-1,9.471000671E0,9.522377766E0
3.411313748E0,-4.200000316E-2,-1.004999995E0,9.451950073E0,9.505322150E0
3.413784401E0,-6.105000153E-2,-9.859500527E-1,9.471000671E0,9.522377766E0
3.416256670E0,-4.200000316E-2,-1.004999995E0,9.433050156E0,9.486528566E0
3.418728939E0,-6.105000153E-2,-9.859500527E-1,9.414000511E0,9.465686992E0
3.421198822E0,-2.295000106E-2,-1.004999995E0,9.355950356E0,9.409801207E0
3.423668709E0,-4.200000316E-2,-9.859500527E-1,9.337050438E0,9.389055990E0
3.426138997E0,-3.000000026E-3,-1.004999995E0,9.280050278E0,9.334311284E0
3.428609266E0,-2.295000106E-2,-9.859500527E-1,9.298950195E0,9.351101483E0
3.431076841E0,-3.000000026E-3,-1.024049997E0,9.280050278E0,9.336381556E0
3.433544420E0,-2.295000106E-2,-1.004999995E0,9.298950195E0,9.353129232E0
3.436013805E0,-3.000000026E-3,-1.042950034E0,9.298950195E0,9.357255394E0
3.438483188E0,-2.295000106E-2,-1.042950034E0,9.337050438E0,9.395146745E0
3.440954227E0,-2.295000106E-2,-1.063050032E0,9.337050438E0,9.397399265E0
3.443425266E0,-4.200000316E-2,-1.042950034E0,9.376049995E0,9.433971713E0
3.445896803E0,-4.200000316E-2,-1.063050032E0,9.355950356E0,9.416243753E0
3.448368342E0,-6.105000153E-2,-1.042950034E0,9.376049995E0,9.434075757E0
3.450837764E0,-4.200000316E-2,-1.063050032E0,9.355950356E0,9.416243753E0
3.453307189E0,-6.105000153E-2,-1.042950034E0,9.355950356E0,9.414100006E0
3.455774433E0,-4.200000316E-2,-1.063050032E0,9.337050438E0,9.397465097E0
3.458241664E0,-6.105000153E-2,-1.042950034E0,9.355950356E0,9.414100006E0
3.460708703E0,-4.200000316E-2,-1.063050032E0,9.337050438E0,9.397465097E0
3.463175742E0,-6.105000153E-2,-1.042950034E0,9.355950356E0,9.414100006E0
3.465643896E0,-2.295000106E-2,-1.063050032E0,9.355950356E0,9.416178053E0
3.468112049E0,-4.200000316E-2,-1.042950034E0,9.394950867E0,9.452756770E0
3.470582482E0,-3.000000026E-3,-1.063050032E0,9.414000511E0,9.473831854E0
3.473052943E0,-2.295000106E-2,-1.042950034E0,9.451950073E0,9.509344439E0
3.475519556E0,-3.000000026E-3,-1.063050032E0,9.451950073E0,9.511542701E0
3.477986175E0,-2.295000106E-2,-1.042950034E0,9.471000671E0,9.528280285E0
3.480454484E0,-3.000000026E-3,-1.063050032E0,9.451950073E0,9.511542701E0
3.482922789E0,-2.295000106E-2,-1.042950034E0,9.471000671E0,9.528280285E0
3.485389865E0,-3.000000026E-3,-1.063050032E0,9.451950073E0,9.511542701E0
3.487856944E0,-2.295000106E-2,-1.042950034E0,9.471000671E0,9.528280285E0
3.490326675E0,-3.000000026E-3,-1.063050032E0,9.451950073E0,9.511542701E0
3.492796404E0,-2.295000106E-2,-1.042950034E0,9.471000671E0,9.528280285E0
3.495262826E0,-2.295000106E-2,-1.063050032E0,9.471000671E0,9.530501340E0
3.497729251E0,-4.200000316E-2,-1.042950034E0,9.529050827E0,9.586048114E0
3.500197445E0,-4.200000316E-2,-1.063050032E0,9.547950745E0,9.607039231E0
3.502665636E0,-6.105000153E-2,-1.042950034E0,9.604950905E0,9.661602029E0
3.505135636E0,-4.200000316E-2,-1.063050032E0,9.625050545E0,9.683668590E0
3.507605635E0,-6.105000153E-2,-1.024049997E0,9.663000107E0,9.717302947E0
3.510072248E0,-2.295000106E-2,-1.042950034E0,9.663000107E0,9.719148242E0
3.512538867E0,-4.200000316E-2,-1.024049997E0,9.682050705E0,9.736146478E0
3.515008952E0,-3.000000026E-3,-1.042950034E0,9.663000107E0,9.719121608E0
3.517479065E0,-2.295000106E-2,-1.024049997E0,9.663000107E0,9.717138270E0
3.519947216E0,-3.000000026E-3,-1.042950034E0,9.625050545E0,9.681392036E0
3.522415371E0,-2.295000106E-2,-1.024049997E0,9.604950905E0,9.659414422E0
3.524883257E0,-3.000000026E-3,-1.042950034E0,9.547950745E0,9.604744515E0
3.527351142E0,-2.295000106E-2,-1.024049997E0,9.529050827E0,9.583945678E0
3.529819156E0,-3.000000026E-3,-1.042950034E0,9.471000671E0,9.528253119E0
3.532287155E0,-2.295000106E-2,-1.024049997E0,9.471000671E0,9.526230042E0
3.534753769E0,-3.000000026E-3,-1.024049997E0,9.433050156E0,9.488473146E0
3.537220386E0,-2.295000106E-2,-9.859500527E-1,9.414000511E0,9.465517938E0
3.539689310E0,-3.000000026E-3,-9.859500527E-1,9.376049995E0,9.427747346E0
3.542158233E0,-2.295000106E-2,-9.480000734E-1,9.376049995E0,9.423881597E0
3.544628363E0,-3.000000026E-3,-9.480000734E-1,9.337050438E0,9.385053224E0
3.547098478E0,-2.295000106E-2,-9.090000391E-1,9.337050438E0,9.381221597E0
3.549565591E0,-3.000000026E-3,-9.090000391E-1,9.298950195E0,9.343273773E0
3.552032708E0,-3.000000026E-3,-8.710500598E-1,9.298950195E0,9.339658021E0
3.554502056E0,1.500000060E-2,-8.710500598E-1,9.261000633E0,9.301886149E0
3.556971401E0,-3.000000026E-3,-8.329500556E-1,9.261000633E0,9.298384135E0
3.559441593E0,1.500000060E-2,-8.329500556E-1,9.241950035E0,9.279421924E0
3.561911786E0,-3.000000026E-3,-7.939500213E-1,9.261000633E0,9.294971671E0
3.564382362E0,1.500000060E-2,-7.939500213E-1,9.241950035E0,9.276002484E0
3.566852939E0,-3.000000026E-3,-7.560000420E-1,9.261000633E0,9.291807025E0
3.569322169E0,1.500000060E-2,-7.560000420E-1,9.222000122E0,9.252948034E0
3.571791402E0,-3.000000026E-3,-7.180500627E-1,9.241950035E0,9.269802875E0
3.574261127E0,1.500000060E-2,-7.180500627E-1,9.222000122E0,9.249924710E0
3.576730858E0,-3.000000026E-3,-6.790500283E-1,9.241950035E0,9.266863460E0
3.579201127E0,1.500000060E-2,-6.790500283E-1,9.222000122E0,9.246978977E0
3.581671396E0,-3.000000026E-3,-6.409500241E-1,9.241950035E0,9.264149523E0
3.584140933E0,-3.000000026E-3,-6.409500241E-1,9.222000122E0,9.244247519E0
3.586610472E0,-2.295000106E-2,-6.220500469E-1,9.241950035E0,9.262889043E0
3.589081089E0,-2.295000106E-2,-6.409500241E-1,9.222000122E0,9.244275520E0
3.591551704E0,-4.200000316E-2,-6.220500469E-1,9.241950035E0,9.262955830E0
3.594021588E0,-4.200000316E-2,-6.409500241E-1,9.222000122E0,9.244342442E0
3.596491473E0,-6.105000153E-2,-6.220500469E-1,9.241950035E0,9.263061795E0
3.598962243E0,-2.295000106E-2,-6.409500241E-1,9.222000122E0,9.244275520E0
3.601433012E0,-4.200000316E-2,-6.220500469E-1,9.241950035E0,9.262955830E0
3.603898561E0,-3.000000026E-3,-6.409500241E-1,9.241950035E0,9.264149523E0
3.606364102E0,-2.295000106E-2,-6.409500241E-1,9.280050278E0,9.302186667E0
3.608830719E0,-3.000000026E-3,-6.790500283E-1,9.280050278E0,9.304861691E0
3.611297334E0,-2.295000106E-2,-6.600000262E-1,9.318000793E0,9.341373856E0
3.613764063E0,-2.295000106E-2,-6.790500283E-1,9.318000793E0,9.342739129E0
3.616230794E0,-4.200000316E-2,-6.600000262E-1,9.337050438E0,9.360442026E0
3.618698068E0,-4.200000316E-2,-6.790500283E-1,9.318000793E0,9.342805346E0
3.621165339E0,-6.105000153E-2,-6.600000262E-1,9.337050438E0,9.360546887E0
3.623637648E0,-4.200000316E-2,-6.790500283E-1,9.318000793E0,9.342805346E0
3.626109953E0,-6.105000153E-2,-6.600000262E-1,9.337050438E0,9.360546887E0
3.628581490E0,-4.200000316E-2,-6.790500283E-1,9.318000793E0,9.342805346E0
3.631053031E0,-6.105000153E-2,-6.600000262E-1,9.337050438E0,9.360546887E0
3.633524690E0,-4.200000316E-2,-6.790500283E-1,9.318000793E0,9.342805346E0
3.635996343E0,-6.105000153E-2,-6.600000262E-1,9.337050438E0,9.360546887E0
3.638468843E0,-4.200000316E-2,-6.790500283E-1,9.318000793E0,9.342805346E0
3.640941344E0,-6.105000153E-2,-6.600000262E-1,9.337050438E0,9.360546887E0
3.643411033E0,-4.200000316E-2,-6.790500283E-1,9.318000793E0,9.342805346E0
3.645880728E0,-6.105000153E-2,-6.600000262E-1,9.337050438E0,9.360546887E0
3.648351652E0,-4.200000316E-2,-6.790500283E-1,9.298950195E0,9.323805429E0
3.650822575E0,-6.105000153E-2,-6.600000262E-1,9.298950195E0,9.322542672E0
3.653294228E0,-4.200000316E-2,-6.790500283E-1,9.241950035E0,9.266958152E0
3.655765881E0,-6.105000153E-2,-6.600000262E-1,9.241950035E0,9.265687648E0
3.658236034E0,-4.200000316E-2,-6.790500283E-1,9.202950478E0,9.228064284E0
3.660706189E0,-6.105000153E-2,-6.600000262E-1,9.202950478E0,9.226788424E0
3.663176054E0,-4.200000316E-2,-6.790500283E-1,9.184050560E0,9.209215907E0
3.665645939E0,-6.105000153E-2,-6.600000262E-1,9.202950478E0,9.226788424E0
3.668115439E0,-2.295000106E-2,-6.790500283E-1,9.184050560E0,9.209148730E0
3.670584938E0,-4.200000316E-2,-6.600000262E-1,9.202950478E0,9.226682043E0
3.673056632E0,-3.000000026E-3,-6.790500283E-1,9.184050560E0,9.209120622E0
3.675528323E0,-2.295000106E-2,-6.600000262E-1,9.202950478E0,9.226614993E0
3.677996990E0,-2.295000106E-2,-6.790500283E-1,9.184050560E0,9.209148730E0
3.680465647E0,-4.200000316E-2,-6.600000262E-1,9.202950478E0,9.226682043E0
3.682935493E0,-3.000000026E-3,-6.790500283E-1,9.184050560E0,9.209120622E0
3.685405338E0,-2.295000106E-2,-6.600000262E-1,9.202950478E0,9.226614993E0
3.687877031E0,-3.000000026E-3,-6.790500283E-1,9.184050560E0,9.209120622E0
3.690348724E0,-2.295000106E-2,-6.600000262E-1,9.202950478E0,9.226614993E0
3.692818360E0,-3.000000026E-3,-6.790500283E-1,9.202950478E0,9.227969193E0
3.695288015E0,-2.295000106E-2,-6.600000262E-1,9.241950035E0,9.265514945E0
3.697759401E0,-3.000000026E-3,-6.790500283E-1,9.261000633E0,9.285862947E0
3.700230784E0,-2.295000106E-2,-6.600000262E-1,9.318000793E0,9.341373856E0
3.702700514E0,-3.000000026E-3,-6.790500283E-1,9.318000793E0,9.342711423E0
3.705170247E0,-2.295000106E-2,-6.600000262E-1,9.355950356E0,9.379228848E0
3.707639150E0,-3.000000026E-3,-6.790500283E-1,9.337050438E0,9.361710785E0
3.710108035E0,-2.295000106E-2,-6.600000262E-1,9.355950356E0,9.379228848E0
3.712579306E0,-3.000000026E-3,-6.790500283E-1,9.337050438E0,9.361710785E0
3.715050573E0,-2.295000106E-2,-6.600000262E-1,9.355950356E0,9.379228848E0
3.717520110E0,-3.000000026E-3,-6.790500283E-1,9.337050438E0,9.361710785E0
3.719989651E0,-2.295000106E-2,-6.600000262E-1,9.355950356E0,9.379228848E0
3.722462244E0,-3.000000026E-3,-6.790500283E-1,9.337050438E0,9.361710785E0
3.724934819E0,-2.295000106E-2,-6.600000262E-1,9.376049995E0,9.399278709E0
3.727404240E0,-3.000000026E-3,-6.790500283E-1,9.376049995E0,9.400608037E0
3.729873665E0,-2.295000106E-2,-6.600000262E-1,9.414000511E0,9.437135813E0
3.732343628E0,-2.295000106E-2,-6.790500283E-1,9.414000511E0,9.438487234E0
3.734813589E0,-4.200000316E-2,-6.600000262E-1,9.451950073E0,9.475058006E0
3.737283318E0,-4.200000316E-2,-6.790500283E-1,9.433050156E0,9.457552970E0
3.739753049E0,-6.105000153E-2,-6.600000262E-1,9.451950073E0,9.475161599E0
3.742219779E0,-4.200000316E-2,-6.790500283E-1,9.433050156E0,9.457552970E0
3.744686512E0,-6.105000153E-2,-6.600000262E-1,9.433050156E0,9.456308073E0
3.747156859E0,-2.295000106E-2,-6.790500283E-1,9.394950867E0,9.419487111E0
3.749627204E0,-4.200000316E-2,-6.600000262E-1,9.414000511E0,9.437201368E0
3.752094845E0,-3.000000026E-3,-6.790500283E-1,9.394950867E0,9.419459630E0
3.754562502E0,-2.295000106E-2,-6.600000262E-1,9.414000511E0,9.437135813E0
3.757032041E0,-3.000000026E-3,-6.790500283E-1,9.394950867E0,9.419459630E0
3.759501578E0,-2.295000106E-2,-6.600000262E-1,9.433050156E0,9.456138851E0
3.761971924E0,-3.000000026E-3,-6.790500283E-1,9.433050156E0,9.457460187E0
3.764442271E0,-2.295000106E-2,-6.600000262E-1,9.451950073E0,9.474992714E0
3.766912361E0,-2.295000106E-2,-6.790500283E-1,9.433050156E0,9.457487557E0
3.769382478E0,-4.200000316E-2,-6.600000262E-1,9.451950073E0,9.475058006E0
3.771846514E0,-4.200000316E-2,-6.790500283E-1,9.414000511E0,9.438552779E0
3.774310555E0,-6.105000153E-2,-6.600000262E-1,9.394950867E0,9.418302869E0
3.776781443E0,-4.200000316E-2,-6.790500283E-1,9.337050438E0,9.361804517E0
3.779252324E0,-6.105000153E-2,-6.600000262E-1,9.337050438E0,9.360546887E0
3.781722038E0,-4.200000316E-2,-6.790500283E-1,9.318000793E0,9.342805346E0
3.784191733E0,-6.105000153E-2,-6.600000262E-1,9.337050438E0,9.360546887E0
3.786660501E0,-2.295000106E-2,-6.790500283E-1,9.318000793E0,9.342739129E0
3.789129270E0,-4.200000316E-2,-6.600000262E-1,9.355950356E0,9.379294808E0
3.791598194E0,-3.000000026E-3,-6.790500283E-1,9.355950356E0,9.380561017E0
3.794067117E0,-2.295000106E-2,-6.600000262E-1,9.394950867E0,9.418132964E0
3.796538507E0,-3.000000026E-3,-6.790500283E-1,9.376049995E0,9.400608037E0
3.799009892E0,-2.295000106E-2,-6.600000262E-1,9.394950867E0,9.418132964E0
3.801478966E0,-3.000000026E-3,-6.790500283E-1,9.376049995E0,9.400608037E0
3.803948045E0,-2.295000106E-2,-6.409500241E-1,9.376049995E0,9.397960266E0
3.806417160E0,-3.000000026E-3,-6.600000262E-1,9.337050438E0,9.360348280E0
3.808886275E0,-2.295000106E-2,-6.409500241E-1,9.337050438E0,9.359052009E0
3.811353664E0,-3.000000026E-3,-6.600000262E-1,9.298950195E0,9.322343255E0
3.813821051E0,-2.295000106E-2,-6.409500241E-1,9.318000793E0,9.340047239E0
3.816289666E0,-3.000000026E-3,-6.600000262E-1,9.298950195E0,9.322343255E0
3.818758281E0,-2.295000106E-2,-6.409500241E-1,9.337050438E0,9.359052009E0
3.821226395E0,-3.000000026E-3,-6.600000262E-1,9.337050438E0,9.360348280E0
3.823694512E0,-3.000000026E-3,-6.409500241E-1,9.376049995E0,9.397932722E0
3.826162704E0,1.500000060E-2,-6.600000262E-1,9.376049995E0,9.399262660E0
3.828630897E0,1.500000060E-2,-6.409500241E-1,9.414000511E0,9.435806672E0
3.831099935E0,3.405000269E-2,-6.600000262E-1,9.394950867E0,9.418166553E0
3.833568974E0,1.500000060E-2,-6.220500469E-1,9.414000511E0,9.434541689E0
3.836037626E0,3.405000269E-2,-6.409500241E-1,9.394950867E0,9.416850754E0
3.838506281E0,1.500000060E-2,-6.220500469E-1,9.414000511E0,9.434541689E0
3.840974088E0,3.405000269E-2,-6.409500241E-1,9.394950867E0,9.416850754E0
3.843441895E0,1.500000060E-2,-6.220500469E-1,9.414000511E0,9.434541689E0
3.845912666E0,3.405000269E-2,-6.409500241E-1,9.394950867E0,9.416850754E0
3.848383433E0,1.500000060E-2,-6.220500469E-1,9.414000511E0,9.434541689E0
3.850852547E0,3.405000269E-2,-6.409500241E-1,9.414000511E0,9.435856186E0
3.853321664E0,1.500000060E-2,-6.220500469E-1,9.451950073E0,9.472408957E0
3.855788093E0,3.405000269E-2,-6.409500241E-1,9.451950073E0,9.473718199E0
3.858254516E0,1.500000060E-2,-6.220500469E-1,9.471000671E0,9.491418491E0
3.860723326E0,3.405000269E-2,-6.409500241E-1,9.451950073E0,9.473718199E0
3.863192133E0,1.500000060E-2,-6.220500469E-1,9.471000671E0,9.491418491E0
3.865661017E0,3.405000269E-2,-6.409500241E-1,9.433050156E0,9.454861796E0
3.868129902E0,1.500000060E-2,-6.220500469E-1,9.433050156E0,9.453549942E0
3.870596982E0,3.405000269E-2,-6.409500241E-1,9.394950867E0,9.416850754E0
3.873064061E0,1.500000060E-2,-6.220500469E-1,9.394950867E0,9.415533604E0
3.875532407E0,3.405000269E-2,-6.409500241E-1,9.376049995E0,9.397993927E0
3.878000752E0,1.500000060E-2,-6.220500469E-1,9.394950867E0,9.415533604E0
3.880470445E0,3.405000269E-2,-6.409500241E-1,9.376049995E0,9.397993927E0
3.882940138E0,1.500000060E-2,-6.220500469E-1,9.394950867E0,9.415533604E0
3.885410599E0,3.405000269E-2,-6.409500241E-1,9.376049995E0,9.397993927E0
3.887881060E0,1.500000060E-2,-6.220500469E-1,9.414000511E0,9.434541689E0
3.890352560E0,3.405000269E-2,-6.409500241E-1,9.394950867E0,9.416850754E0
3.892824061E0,1.500000060E-2,-6.220500469E-1,9.414000511E0,9.434541689E0
3.895293328E0,3.405000269E-2,-6.409500241E-1,9.394950867E0,9.416850754E0
3.897762599E0,1.500000060E-2,-6.220500469E-1,9.394950867E0,9.415533604E0
3.900232584E0,3.405000269E-2,-6.409500241E-1,9.355950356E0,9.377941319E0
3.902702583E0,1.500000060E-2,-6.220500469E-1,9.355950356E0,9.376618704E0
3.905172275E0,3.405000269E-2,-6.409500241E-1,9.337050438E0,9.359085811E0
3.907641968E0,1.500000060E-2,-6.220500469E-1,9.355950356E0,9.376618704E0
3.910115509E0,1.500000060E-2,-6.409500241E-1,9.337050438E0,9.359035891E0
3.912589046E0,-3.000000026E-3,-6.220500469E-1,9.376049995E0,9.396662640E0
3.915057816E0,-3.000000026E-3,-6.409500241E-1,9.376049995E0,9.397932722E0
3.917526589E0,-2.295000106E-2,-6.220500469E-1,9.414000511E0,9.434557678E0
3.919996128E0,-3.000000026E-3,-6.409500241E-1,9.414000511E0,9.435795227E0
3.922465665E0,-2.295000106E-2,-6.220500469E-1,9.433050156E0,9.453565899E0
3.924935934E0,-2.295000106E-2,-6.409500241E-1,9.414000511E0,9.435822659E0
3.927406205E0,-4.200000316E-2,-6.220500469E-1,9.433050156E0,9.453631339E0
3.929877781E0,-4.200000316E-2,-6.409500241E-1,9.394950867E0,9.416882856E0
3.932349358E0,-6.105000153E-2,-6.220500469E-1,9.394950867E0,9.415719577E0
3.934820588E0,-4.200000316E-2,-6.409500241E-1,9.355950356E0,9.377973554E0
3.937291819E0,-6.105000153E-2,-6.220500469E-1,9.355950356E0,9.376805448E0
3.939766244E0,-4.200000316E-2,-6.409500241E-1,9.337050438E0,9.359118111E0
3.942240665E0,-6.105000153E-2,-6.220500469E-1,9.355950356E0,9.376805448E0
3.944712251E0,-2.295000106E-2,-6.409500241E-1,9.337050438E0,9.359052009E0
3.947183830E0,-4.200000316E-2,-6.220500469E-1,9.355950356E0,9.376700769E0
3.949653213E0,-3.000000026E-3,-6.409500241E-1,9.355950356E0,9.377879984E0
3.952122598E0,-2.295000106E-2,-6.220500469E-1,9.394950867E0,9.415549626E0
3.954593022E0,-3.000000026E-3,-6.409500241E-1,9.376049995E0,9.397932722E0
3.957063445E0,-2.295000106E-2,-6.220500469E-1,9.394950867E0,9.415549626E0
3.959534237E0,-3.000000026E-3,-6.409500241E-1,9.376049995E0,9.397932722E0
3.962005046E0,-2.295000106E-2,-6.220500469E-1,9.394950867E0,9.415549626E0
3.964475044E0,-3.000000026E-3,-6.409500241E-1,9.376049995E0,9.397932722E0
3.966945045E0,-2.295000106E-2,-6.220500469E-1,9.394950867E0,9.415549626E0
3.969411813E0,-3.000000026E-3,-6.409500241E-1,9.376049995E0,9.397932722E0
3.971878584E0,-2.295000106E-2,-6.220500469E-1,9.394950867E0,9.415549626E0
3.974349817E0,-3.000000026E-3,-6.409500241E-1,9.394950867E0,9.416789672E0
3.976821046E0,-2.295000106E-2,-6.220500469E-1,9.433050156E0,9.453565899E0
3.979290236E0,-3.000000026E-3,-6.409500241E-1,9.433050156E0,9.454800959E0
3.981759431E0,-2.295000106E-2,-6.220500469E-1,9.471000671E0,9.491434385E0
3.984229431E0,-3.000000026E-3,-6.409500241E-1,9.451950073E0,9.473657484E0
3.986699430E0,-2.295000106E-2,-6.220500469E-1,9.471000671E0,9.491434385E0
3.989169497E0,-3.000000026E-3,-6.409500241E-1,9.451950073E0,9.473657484E0
3.991639536E0,-2.295000106E-2,-6.220500469E-1,9.451950073E0,9.472424882E0
3.994109997E0,-3.000000026E-3,-6.409500241E-1,9.414000511E0,9.435795227E0
3.996580460E0,-2.295000106E-2,-6.220500469E-1,9.414000511E0,9.434557678E0
3.999049073E0,-2.295000106E-2,-6.409500241E-1,9.394950867E0,9.416817160E0
4.001517690E0,-4.200000316E-2,-6.220500469E-1,9.414000511E0,9.434623251E0
4.003989055E0,-3.000000026E-3,-6.409500241E-1,9.394950867E0,9.416789672E0
4.006460400E0,-2.295000106E-2,-6.220500469E-1,9.414000511E0,9.434557678E0
4.008932246E0,-3.000000026E-3,-6.409500241E-1,9.394950867E0,9.416789672E0
4.011404093E0,-2.295000106E-2,-6.220500469E-1,9.433050156E0,9.453565899E0
4.013876130E0,-3.000000026E-3,-6.409500241E-1,9.414000511E0,9.435795227E0
4.016348169E0,-2.295000106E-2,-6.220500469E-1,9.433050156E0,9.453565899E0
4.018820276E0,-3.000000026E-3,-6.409500241E-1,9.414000511E0,9.435795227E0
4.021292431E0,-2.295000106E-2,-6.220500469E-1,9.433050156E0,9.453565899E0
4.023763044E0,-3.000000026E-3,-6.409500241E-1,9.414000511E0,9.435795227E0
4.026233661E0,-2.295000106E-2,-6.220500469E-1,9.414000511E0,9.434557678E0
4.028707816E0,-3.000000026E-3,-6.409500241E-1,9.376049995E0,9.397932722E0
4.031181969E0,-2.295000106E-2,-6.220500469E-1,9.394950867E0,9.415549626E0
4.033652548E0,-3.000000026E-3,-6.409500241E-1,9.376049995E0,9.397932722E0
4.036123127E0,-2.295000106E-2,-6.220500469E-1,9.394950867E0,9.415549626E0
4.038592396E0,-3.000000026E-3,-6.409500241E-1,9.376049995E0,9.397932722E0
4.041061665E0,-2.295000106E-2,-6.220500469E-1,9.394950867E0,9.415549626E0
4.043532744E0,-3.000000026E-3,-6.409500241E-1,9.376049995E0,9.397932722E0
4.046003819E0,-2.295000106E-2,-6.220500469E-1,9.394950867E0,9.415549626E0
4.048474699E0,-3.000000026E-3,-6.409500241E-1,9.376049995E0,9.397932722E0
4.050945584E0,-2.295000106E-2,-6.220500469E-1,9.394950867E0,9.415549626E0
4.053415930E0,-3.000000026E-3,-6.409500241E-1,9.376049995E0,9.397932722E0
4.055886277E0,-2.295000106E-2,-6.220500469E-1,9.376049995E0,9.396690188E0
4.058354083E0,-3.000000026E-3,-6.409500241E-1,9.355950356E0,9.377879984E0
4.060821892E0,-2.295000106E-2,-6.220500469E-1,9.355950356E0,9.376634792E0
4.063293124E0,-3.000000026E-3,-6.409500241E-1,9.318000793E0,9.340019525E0
4.065764353E0,-2.295000106E-2,-6.220500469E-1,9.318000793E0,9.338769285E0
4.068232389E0,-3.000000026E-3,-6.409500241E-1,9.298950195E0,9.321013929E0
4.070700430E0,-2.295000106E-2,-6.220500469E-1,9.318000793E0,9.338769285E0
4.073170085E0,-3.000000026E-3,-6.409500241E-1,9.298950195E0,9.321013929E0
4.075639738E0,-2.295000106E-2,-6.220500469E-1,9.318000793E0,9.338769285E0
4.078108082E0,-3.000000026E-3,-6.409500241E-1,9.298950195E0,9.321013929E0
4.080576431E0,-2.295000106E-2,-6.220500469E-1,9.318000793E0,9.338769285E0
