"Time (s)","Acceleration x (m/s^2)","Acceleration y (m/s^2)","Acceleration z (m/s^2)","Absolute acceleration (m/s^2)"
4.253277900E-2,-8.269500136E-1,5.122950077E0,7.575000286E0,9.181998320E0
4.502673800E-2,-8.650500178E-1,5.142000198E0,7.594050407E0,9.211844504E0
4.752070300E-2,-8.460000157E-1,5.122950077E0,7.594050407E0,9.199452979E0
5.001414100E-2,-8.650500178E-1,5.161950111E0,7.612950325E0,9.238563370E0
5.250756400E-2,-8.460000157E-1,5.142000198E0,7.594050407E0,9.210075117E0
5.500214100E-2,-8.650500178E-1,5.161950111E0,7.612950325E0,9.238563370E0
5.749671800E-2,-8.460000157E-1,5.142000198E0,7.594050407E0,9.210075117E0
5.998983100E-2,-8.650500178E-1,5.161950111E0,7.612950325E0,9.238563370E0
6.248294800E-2,-8.269500136E-1,5.142000198E0,7.594050407E0,9.208344800E0
6.497617400E-2,-8.460000157E-1,5.161950111E0,7.594050407E0,9.221228040E0
6.746936700E-2,-8.080500364E-1,5.142000198E0,7.537050247E0,9.159707273E0
6.996336600E-2,-8.269500136E-1,5.161950111E0,7.537050247E0,9.172606048E0
7.245736700E-2,-7.890000343E-1,5.142000198E0,7.498050213E0,9.125976336E0
7.494905700E-2,-8.080500364E-1,5.161950111E0,7.498050213E0,9.138896586E0
7.744075000E-2,-7.890000343E-1,5.142000198E0,7.459950447E0,9.094698883E0
7.993419400E-2,-8.080500364E-1,5.161950111E0,7.441050529E0,9.092189329E0
8.242761700E-2,-7.890000343E-1,5.142000198E0,7.384050369E0,9.032545984E0
8.491865300E-2,-8.080500364E-1,5.161950111E0,7.363950253E0,9.029199141E0
8.740969400E-2,-7.890000343E-1,5.142000198E0,7.326000214E0,8.985152543E0
8.990138700E-2,-8.080500364E-1,5.161950111E0,7.326000214E0,8.998274998E0
9.239307800E-2,-7.890000343E-1,5.142000198E0,7.288050175E0,8.954237122E0
9.488668400E-2,-8.080500364E-1,5.161950111E0,7.288050175E0,8.967404818E0
9.738026100E-2,-7.890000343E-1,5.142000198E0,7.249050140E0,8.922522907E0
9.987426000E-2,-8.080500364E-1,5.161950111E0,7.269000530E0,8.951929542E0
1.023682610E-1,-7.890000343E-1,5.142000198E0,7.249050140E0,8.922522907E0
1.048607210E-1,-8.460000157E-1,5.161950111E0,7.269000530E0,8.955434869E0
1.073531840E-1,-8.269500136E-1,5.142000198E0,7.249050140E0,8.925958789E0
1.098464300E-1,-8.650500178E-1,5.161950111E0,7.269000530E0,8.957254557E0
1.123396590E-1,-8.460000157E-1,5.142000198E0,7.269000530E0,8.943950513E0
1.148336210E-1,-8.650500178E-1,5.161950111E0,7.306950569E0,8.988079167E0
1.173275840E-1,-8.460000157E-1,5.161950111E0,7.306950569E0,8.986265720E0
1.198208130E-1,-8.650500178E-1,5.181000233E0,7.345050335E0,9.029996643E0
1.223140440E-1,-8.460000157E-1,5.161950111E0,7.326000214E0,9.001762278E0
1.248069720E-1,-8.650500178E-1,5.181000233E0,7.345050335E0,9.029996643E0
1.272998950E-1,-8.460000157E-1,5.161950111E0,7.326000214E0,9.001762278E0
1.297943950E-1,-8.650500178E-1,5.181000233E0,7.345050335E0,9.029996643E0
1.322888940E-1,-8.460000157E-1,5.161950111E0,7.326000214E0,9.001762278E0
1.347823930E-1,-8.650500178E-1,5.181000233E0,7.345050335E0,9.029996643E0
1.372758940E-1,-8.460000157E-1,5.161950111E0,7.326000214E0,9.001762278E0
1.397705550E-1,-8.650500178E-1,5.181000233E0,7.345050335E0,9.029996643E0
1.422652080E-1,-8.269500136E-1,5.161950111E0,7.326000214E0,8.999991912E0
1.447570510E-1,-8.460000157E-1,5.181000233E0,7.363950253E0,9.043574667E0
1.472489000E-1,-8.269500136E-1,5.161950111E0,7.363950253E0,9.030910176E0
1.497412080E-1,-8.460000157E-1,5.161950111E0,7.384050369E0,9.049068727E0
1.522335150E-1,-8.269500136E-1,5.142000198E0,7.363950253E0,9.019521921E0
1.547253650E-1,-8.460000157E-1,5.142000198E0,7.384050369E0,9.037703354E0
1.572172120E-1,-8.269500136E-1,5.104050159E0,7.363950253E0,8.997940746E0
1.597122910E-1,-8.460000157E-1,5.104050159E0,7.402950287E0,9.031650846E0
1.622073660E-1,-8.269500136E-1,5.085000038E0,7.384050369E0,9.003625468E0
1.646998260E-1,-8.460000157E-1,5.104050159E0,7.402950287E0,9.031650846E0
1.671922890E-1,-8.269500136E-1,5.085000038E0,7.384050369E0,9.003625468E0
1.696870740E-1,-8.460000157E-1,5.104050159E0,7.422000408E0,9.047272192E0
1.721818030E-1,-8.269500136E-1,5.085000038E0,7.422000408E0,9.034775137E0
1.746769180E-1,-8.460000157E-1,5.104050159E0,7.459950447E0,9.078430742E0
1.771720350E-1,-8.269500136E-1,5.085000038E0,7.459950447E0,9.065976637E0
1.796655720E-1,-8.460000157E-1,5.104050159E0,7.498050213E0,9.109764050E0
1.821591110E-1,-8.269500136E-1,5.085000038E0,7.498050213E0,9.097352841E0
1.846523900E-1,-8.460000157E-1,5.104050159E0,7.537050247E0,9.141890969E0
1.871456210E-1,-8.269500136E-1,5.085000038E0,7.537050247E0,9.129523435E0
1.896397380E-1,-8.460000157E-1,5.104050159E0,7.594050407E0,9.188941487E0
1.921338530E-1,-8.269500136E-1,5.085000038E0,7.612950325E0,9.192283958E0
1.946258890E-1,-8.460000157E-1,5.104050159E0,7.671000481E0,9.252637053E0
1.971179280E-1,-8.269500136E-1,5.085000038E0,7.671000481E0,9.240417744E0
1.996099050E-1,-8.460000157E-1,5.104050159E0,7.708950520E0,9.284124200E0
2.021018660E-1,-8.269500136E-1,5.085000038E0,7.728000164E0,9.287790816E0
2.045971370E-1,-8.460000157E-1,5.085000038E0,7.786050320E0,9.337854196E0
2.070924040E-1,-8.269500136E-1,5.047050476E0,7.804950237E0,9.331335008E0
2.095863640E-1,-8.460000157E-1,5.065950394E0,7.843050480E0,9.375127212E0
2.120803270E-1,-8.269500136E-1,5.047050476E0,7.843050480E0,9.363226242E0
2.145738850E-1,-8.460000157E-1,5.047050476E0,7.882050514E0,9.397614317E0
2.170674620E-1,-8.269500136E-1,5.028000355E0,7.900950432E0,9.401577081E0
2.195625410E-1,-8.460000157E-1,5.028000355E0,7.957950592E0,9.451215859E0
2.220576160E-1,-8.269500136E-1,4.989000320E0,7.957950592E0,9.428835991E0
2.245516150E-1,-8.460000157E-1,4.989000320E0,7.996050358E0,9.462698428E0
2.270456160E-1,-8.269500136E-1,4.951050282E0,7.996050358E0,9.441057491E0
2.295392940E-1,-8.460000157E-1,4.951050282E0,8.035050392E0,9.475792828E0
2.320329870E-1,-8.269500136E-1,4.912950039E0,8.035050392E0,9.454256143E0
2.345252560E-1,-8.460000157E-1,4.912950039E0,8.072999954E0,9.488209651E0
2.370175250E-1,-8.080500364E-1,4.873950005E0,8.053950310E0,9.448515709E0
2.395101410E-1,-7.890000343E-1,4.873950005E0,8.072999954E0,9.463151587E0
2.420027560E-1,-7.500000596E-1,4.836000443E0,8.053950310E0,9.424198425E0
2.444955250E-1,-7.500000596E-1,4.836000443E0,8.072999954E0,9.440483496E0
2.469882940E-1,-7.120500207E-1,4.816950321E0,8.053950310E0,9.411489851E0
2.494795630E-1,-7.309500575E-1,4.836000443E0,8.072999954E0,9.438989169E0
2.519708340E-1,-7.120500207E-1,4.816950321E0,8.053950310E0,9.411489851E0
2.544638730E-1,-7.309500575E-1,4.836000443E0,8.072999954E0,9.438989169E0
2.569569100E-1,-7.120500207E-1,4.816950321E0,8.053950310E0,9.411489851E0
2.594483320E-1,-7.120500207E-1,4.836000443E0,8.072999954E0,9.437544372E0
2.619397570E-1,-6.930000186E-1,4.816950321E0,8.053950310E0,9.410067748E0
2.644332580E-1,-6.930000186E-1,4.836000443E0,8.072999954E0,9.436126195E0
2.669267570E-1,-6.739500165E-1,4.816950321E0,8.053950310E0,9.408684000E0
2.694178700E-1,-6.739500165E-1,4.836000443E0,8.072999954E0,9.434746269E0
2.719089870E-1,-6.349500418E-1,4.816950321E0,8.053950310E0,9.405970845E0
2.744018970E-1,-6.349500418E-1,4.816950321E0,8.072999954E0,9.422287419E0
2.768948200E-1,-5.970000029E-1,4.779000282E0,8.053950310E0,9.384101891E0
2.793877420E-1,-6.160500050E-1,4.779000282E0,8.072999954E0,9.401685464E0
2.818806650E-1,-5.779500008E-1,4.740000248E0,8.053950310E0,9.363105476E0
2.843745110E-1,-5.590500236E-1,4.740000248E0,8.072999954E0,9.378351003E0
2.868683580E-1,-5.209500194E-1,4.702050209E0,8.053950310E0,9.340598518E0
2.893621980E-1,-5.010000467E-1,4.702050209E0,8.072999954E0,9.355939583E0
2.918560450E-1,-4.630500078E-1,4.663950443E0,8.053950310E0,9.318420716E0
2.943485060E-1,-4.819500148E-1,4.663950443E0,8.072999954E0,9.335846925E0
2.968409690E-1,-4.440000355E-1,4.624950409E0,8.035050392E0,9.281666721E0
2.993338920E-1,-4.630500078E-1,4.624950409E0,8.053950310E0,9.298962156E0
3.018268150E-1,-4.440000355E-1,4.587000370E0,8.035050392E0,9.262815081E0
3.043197420E-1,-4.630500078E-1,4.587000370E0,8.053950310E0,9.280145651E0
3.068126650E-1,-4.440000355E-1,4.549050331E0,8.035050392E0,9.244080795E0
3.093063580E-1,-4.630500078E-1,4.567950249E0,8.053950310E0,9.270744327E0
3.118000510E-1,-4.440000355E-1,4.549050331E0,8.035050392E0,9.244080795E0
3.142917410E-1,-4.630500078E-1,4.567950249E0,8.072999954E0,9.287298479E0
3.167834340E-1,-4.440000355E-1,4.549050331E0,8.072999954E0,9.277085922E0
3.192749140E-1,-4.630500078E-1,4.567950249E0,8.110950470E0,9.320305913E0
3.217664150E-1,-4.440000355E-1,4.549050331E0,8.110950470E0,9.310129563E0
3.242598000E-1,-4.630500078E-1,4.567950249E0,8.149950027E0,9.354264815E0
3.267531830E-1,-4.630500078E-1,4.549050331E0,8.149950027E0,9.345050009E0
3.292464520E-1,-4.819500148E-1,4.567950249E0,8.188050270E0,9.388429715E0
3.317397230E-1,-4.819500148E-1,4.549050331E0,8.188050270E0,9.379248475E0
3.342324680E-1,-5.400000215E-1,4.567950249E0,8.226000786E0,9.424694076E0
3.367252370E-1,-5.209500194E-1,4.549050331E0,8.226000786E0,9.414474853E0
3.392176980E-1,-5.400000215E-1,4.567950249E0,8.265000343E0,9.458752570E0
3.417101610E-1,-5.209500194E-1,4.549050331E0,8.265000343E0,9.448570184E0
3.442030840E-1,-5.400000215E-1,4.567950249E0,8.302950859E0,9.491931440E0
3.466960070E-1,-5.209500194E-1,4.530000210E0,8.302950859E0,9.472659806E0
3.491896310E-1,-5.400000215E-1,4.530000210E0,8.359950066E0,9.523721280E0
3.516832840E-1,-5.209500194E-1,4.491000175E0,8.359950066E0,9.504169432E0
3.541768600E-1,-5.400000215E-1,4.491000175E0,8.418000221E0,9.556328287E0
3.566704390E-1,-5.209500194E-1,4.453050137E0,8.418000221E0,9.537492971E0
3.591644390E-1,-5.400000215E-1,4.471950054E0,8.475000381E0,9.597685595E0
3.616584380E-1,-5.209500194E-1,4.453050137E0,8.494050026E0,9.604682727E0
3.641508560E-1,-5.400000215E-1,4.471950054E0,8.551950455E0,9.665701935E0
3.666432810E-1,-5.209500194E-1,4.453050137E0,8.551950455E0,9.655925695E0
3.691383590E-1,-5.400000215E-1,4.471950054E0,8.590050697E0,9.699428246E0
3.716334340E-1,-5.209500194E-1,4.453050137E0,8.590050697E0,9.689686033E0
3.741262410E-1,-5.400000215E-1,4.471950054E0,8.629050255E0,9.733984056E0
3.766190500E-1,-5.209500194E-1,4.453050137E0,8.629050255E0,9.724276464E0
3.791113720E-1,-5.400000215E-1,4.471950054E0,8.667000771E0,9.767642483E0
3.816036790E-1,-5.209500194E-1,4.453050137E0,8.667000771E0,9.757968375E0
3.840975260E-1,-5.400000215E-1,4.471950054E0,8.704950333E0,9.801331420E0
3.865913710E-1,-5.010000467E-1,4.434000015E0,8.704950333E0,9.781999667E0
3.890847170E-1,-4.819500148E-1,4.434000015E0,8.743050575E0,9.814966394E0
3.915780640E-1,-4.440000355E-1,4.394999981E0,8.743050575E0,9.795616072E0
3.940702320E-1,-4.440000355E-1,4.394999981E0,8.763000488E0,9.813426436E0
3.965623850E-1,-4.060500264E-1,4.357050419E0,8.743050575E0,9.776998432E0
3.990566950E-1,-4.060500264E-1,4.357050419E0,8.763000488E0,9.794842650E0
4.015510020E-1,-3.670500219E-1,4.318950176E0,8.743050575E0,9.758534199E0
4.040442690E-1,-3.670500219E-1,4.318950176E0,8.763000488E0,9.776412118E0
4.065375400E-1,-3.289500177E-1,4.281000137E0,8.743050575E0,9.740436523E0
4.090292180E-1,-2.910000086E-1,4.281000137E0,8.743050575E0,9.739228745E0
4.115209110E-1,-2.329500169E-1,4.242000103E0,8.723999977E0,9.703453312E0
4.140173360E-1,-2.140500098E-1,4.242000103E0,8.723999977E0,9.703017978E0
4.165137570E-1,-1.759500057E-1,4.185000420E0,8.704950333E0,9.660297470E0
4.190074470E-1,-1.570500135E-1,4.185000420E0,8.704950333E0,9.659971714E0
4.215011420E-1,-9.900000691E-2,4.126950264E0,8.667000771E0,9.599917804E0
4.239922600E-1,-9.900000691E-2,4.108050346E0,8.667000771E0,9.591808016E0
4.264833770E-1,-6.105000153E-2,4.051050186E0,8.629050255E0,9.532850729E0
4.289779550E-1,-6.105000153E-2,4.051050186E0,8.629050255E0,9.532850729E0
4.314725300E-1,-2.295000106E-2,4.012050152E0,8.590050697E0,9.480825075E0
4.339671830E-1,-2.295000106E-2,4.012050152E0,8.571000099E0,9.463567817E0
4.364618380E-1,1.500000060E-2,3.973950148E0,8.513999939E0,9.395780954E0
4.389550480E-1,-3.000000026E-3,3.973950148E0,8.494050026E0,9.377695592E0
4.414482810E-1,3.405000269E-2,3.936000109E0,8.437050819E0,9.310052781E0
4.439419340E-1,1.500000060E-2,3.936000109E0,8.418000221E0,9.292741769E0
4.464355870E-1,3.405000269E-2,3.897000074E0,8.359950066E0,9.223694167E0
4.489303950E-1,1.500000060E-2,3.897000074E0,8.341050148E0,9.206516831E0
4.514252040E-1,3.405000269E-2,3.859050274E0,8.284049988E0,9.138868235E0
4.539167540E-1,-3.000000026E-3,3.859050274E0,8.284049988E0,9.138805295E0
4.564082950E-1,-3.000000026E-3,3.840000153E0,8.245050430E0,9.095409104E0
4.589009110E-1,-4.200000316E-2,3.859050274E0,8.265000343E0,9.121637117E0
4.613935240E-1,-4.200000316E-2,3.840000153E0,8.245050430E0,9.095505581E0
4.638859470E-1,-6.105000153E-2,3.859050274E0,8.265000343E0,9.121744723E0
4.663783720E-1,-7.995000482E-2,3.840000153E0,8.245050430E0,9.095759989E0
4.688722280E-1,-1.369500011E-1,3.859050274E0,8.265000343E0,9.122568443E0
4.713660730E-1,-1.570500135E-1,3.840000153E0,8.265000343E0,9.114850331E0
4.738588410E-1,-2.140500098E-1,3.859050274E0,8.302950859E0,9.158443066E0
4.763516120E-1,-2.329500169E-1,3.840000153E0,8.302950859E0,9.150893937E0
4.788440730E-1,-2.719500065E-1,3.859050274E0,8.341050148E0,9.194527905E0
4.813365340E-1,-2.910000086E-1,3.840000153E0,8.341050148E0,9.187132292E0
4.838311510E-1,-3.289500177E-1,3.859050274E0,8.380050659E0,9.231778062E0
4.863257660E-1,-3.289500177E-1,3.820950270E0,8.380050659E0,9.215916565E0
4.888191490E-1,-3.670500219E-1,3.840000153E0,8.418000221E0,9.259754566E0
4.913125340E-1,-3.480000198E-1,3.802050114E0,8.418000221E0,9.243344460E0
4.938040720E-1,-3.670500219E-1,3.802050114E0,8.455950737E0,9.278653655E0
4.962956110E-1,-3.480000198E-1,3.763050079E0,8.455950737E0,9.262005872E0
4.987887230E-1,-3.670500219E-1,3.763050079E0,8.494050026E0,9.297535021E0
5.012818380E-1,-3.480000198E-1,3.724950075E0,8.494050026E0,9.281446165E0
5.037764140E-1,-3.480000198E-1,3.724950075E0,8.533050537E0,9.317151311E0
5.062709910E-1,-3.289500177E-1,3.687000275E0,8.513999939E0,9.283877105E0
5.087648360E-1,-3.289500177E-1,3.687000275E0,8.533050537E0,9.301351010E0
5.112586830E-1,-3.100500107E-1,3.648000240E0,8.513999939E0,9.267806198E0
5.137513510E-1,-3.289500177E-1,3.648000240E0,8.533050537E0,9.285960658E0
5.162440060E-1,-2.910000086E-1,3.610050201E0,8.494050026E0,9.233960651E0
5.187367750E-1,-3.100500107E-1,3.610050201E0,8.494050026E0,9.234580624E0
5.212295440E-1,-2.719500065E-1,3.571950197E0,8.455950737E0,9.183457295E0
5.237223130E-1,-2.910000086E-1,3.571950197E0,8.455950737E0,9.184041163E0
5.262150820E-1,-2.520000041E-1,3.553050280E0,8.418000221E0,9.140590682E0
5.287087940E-1,-2.719500065E-1,3.571950197E0,8.418000221E0,9.148525168E0
5.312024870E-1,-2.520000041E-1,3.553050280E0,8.380050659E0,9.105653153E0
5.336961780E-1,-2.719500065E-1,3.553050280E0,8.380050659E0,9.106227108E0
5.361898710E-1,-2.329500169E-1,3.514050245E0,8.359950066E0,9.071470660E0
5.386818690E-1,-2.520000041E-1,3.514050245E0,8.380050659E0,9.090506156E0
5.411738700E-1,-2.140500098E-1,3.495000124E0,8.359950066E0,9.063642114E0
5.436686470E-1,-2.329500169E-1,3.495000124E0,8.380050659E0,9.082650529E0
5.461634140E-1,-2.140500098E-1,3.457050085E0,8.359950066E0,9.049076074E0
5.486566050E-1,-2.329500169E-1,3.475950241E0,8.359950066E0,9.056779830E0
5.511497980E-1,-1.950000077E-1,3.438000202E0,8.322000504E0,9.006306833E0
5.536436840E-1,-2.140500098E-1,3.438000202E0,8.322000504E0,9.006739431E0
5.561375690E-1,-1.950000077E-1,3.399000168E0,8.284049988E0,8.956378249E0
5.586317510E-1,-2.140500098E-1,3.399000168E0,8.265000343E0,8.939197404E0
5.611259040E-1,-1.759500057E-1,3.342000246E0,8.226000786E0,8.880710162E0
5.636205190E-1,-1.570500135E-1,3.322950125E0,8.226000786E0,8.873204109E0
5.661151360E-1,-1.180500090E-1,3.265050173E0,8.188050270E0,8.815818491E0
5.686100190E-1,-1.180500090E-1,3.246000051E0,8.188050270E0,8.808780810E0
5.711049040E-1,-6.105000153E-2,3.189000130E0,8.149950027E0,8.751864623E0
5.735982830E-1,-6.105000153E-2,3.189000130E0,8.149950027E0,8.751864623E0
5.760916700E-1,-3.000000026E-3,3.150000095E0,8.110950470E0,8.701150908E0
5.785854000E-1,1.500000060E-2,3.150000095E0,8.110950470E0,8.701163320E0
5.810791310E-1,7.200000435E-2,3.112050056E0,8.072999954E0,8.652361979E0
5.835723220E-1,9.105000645E-2,3.112050056E0,8.072999954E0,8.652541472E0
5.860655150E-1,1.300500035E-1,3.073950052E0,8.053950310E0,8.621612234E0
5.885581640E-1,1.489500105E-1,3.093000174E0,8.072999954E0,8.646511692E0
5.910508170E-1,1.870500147E-1,3.073950052E0,8.053950310E0,8.622660391E0
5.935449720E-1,1.680000126E-1,3.093000174E0,8.072999954E0,8.646860837E0
5.960391250E-1,1.870500147E-1,3.055050135E0,8.053950310E0,8.615940728E0
5.985338950E-1,1.680000126E-1,3.055050135E0,8.072999954E0,8.633358766E0
6.010286640E-1,1.870500147E-1,3.016050100E0,8.072999954E0,8.620027504E0
6.035223320E-1,1.680000126E-1,3.016050100E0,8.110950470E0,8.655189180E0
6.060159870E-1,1.870500147E-1,2.977950096E0,8.092050552E0,8.624642406E0
6.085090630E-1,1.680000126E-1,2.977950096E0,8.131050110E0,8.660853692E0
6.110021400E-1,1.870500147E-1,2.940000057E0,8.110950470E0,8.629374576E0
6.134954100E-1,1.680000126E-1,2.940000057E0,8.131050110E0,8.647878366E0
6.159886790E-1,1.680000126E-1,2.901000023E0,8.110950470E0,8.615772900E0
6.184801970E-1,1.489500105E-1,2.920950174E0,8.131050110E0,8.641071225E0
6.209717360E-1,1.680000126E-1,2.901000023E0,8.110950470E0,8.615772900E0
6.234650830E-1,1.489500105E-1,2.901000023E0,8.131050110E0,8.634347869E0
6.259584280E-1,1.489500105E-1,2.881950140E0,8.110950470E0,8.609026672E0
6.284518510E-1,1.300500035E-1,2.901000023E0,8.131050110E0,8.634042508E0
6.309452740E-1,1.300500035E-1,2.881950140E0,8.110950470E0,8.608720412E0
6.334384520E-1,1.110000089E-1,2.901000023E0,8.131050110E0,8.633776579E0
6.359316450E-1,1.110000089E-1,2.881950140E0,8.110950470E0,8.608453702E0
6.384242990E-1,7.200000435E-2,2.901000023E0,8.131050110E0,8.633363251E0
6.409169520E-1,7.200000435E-2,2.881950140E0,8.110950470E0,8.608039157E0
6.434092610E-1,3.405000269E-2,2.901000023E0,8.131050110E0,8.633130164E0
6.459015680E-1,3.405000269E-2,2.881950140E0,8.110950470E0,8.607805385E0
6.483939770E-1,-3.000000026E-3,2.901000023E0,8.149950027E0,8.650866753E0
6.508864000E-1,1.500000060E-2,2.881950140E0,8.149950027E0,8.644509648E0
6.533804380E-1,-2.295000106E-2,2.901000023E0,8.169000626E0,8.668846466E0
6.558744770E-1,-3.000000026E-3,2.881950140E0,8.169000626E0,8.662460207E0
6.583675140E-1,-4.200000316E-2,2.901000023E0,8.188050270E0,8.686871264E0
6.608605530E-1,-2.295000106E-2,2.881950140E0,8.169000626E0,8.662490088E0
6.633546890E-1,-6.105000153E-2,2.901000023E0,8.188050270E0,8.686984256E0
6.658488420E-1,-4.200000316E-2,2.881950140E0,8.169000626E0,8.662561505E0
6.683423800E-1,-6.105000153E-2,2.901000023E0,8.188050270E0,8.686984256E0
6.708359190E-1,-4.200000316E-2,2.881950140E0,8.169000626E0,8.662561505E0
6.733265720E-1,-4.200000316E-2,2.901000023E0,8.188050270E0,8.686871264E0
6.758172270E-1,-2.295000106E-2,2.881950140E0,8.149950027E0,8.644527099E0
6.783101660E-1,-2.295000106E-2,2.920950174E0,8.149950027E0,8.657607179E0
6.808030870E-1,-3.000000026E-3,2.920950174E0,8.110950470E0,8.620874460E0
6.832945860E-1,-2.295000106E-2,2.940000057E0,8.110950470E0,8.627377618E0
6.857860870E-1,-3.000000026E-3,2.920950174E0,8.072999954E0,8.585178343E0
6.882781260E-1,-2.295000106E-2,2.940000057E0,8.092050552E0,8.609611442E0
6.907701650E-1,1.500000060E-2,2.940000057E0,8.072999954E0,8.591690963E0
6.932616450E-1,-3.000000026E-3,2.959050179E0,8.092050552E0,8.616105216E0
6.957531460E-1,3.405000269E-2,2.940000057E0,8.092050552E0,8.609648186E0
6.982465320E-1,1.500000060E-2,2.959050179E0,8.149950027E0,8.670518347E0
7.007399150E-1,3.405000269E-2,2.940000057E0,8.686050415E0,9.170181653E0
7.032331450E-1,1.500000060E-2,2.959050179E0,8.704950333E0,9.194148316E0
7.057263760E-1,3.405000269E-2,2.940000057E0,8.723999977E0,9.206135744E0
7.082180600E-1,1.500000060E-2,2.940000057E0,8.800950050E0,9.279038050E0
7.107097530E-1,5.295000225E-2,2.901000023E0,9.355950356E0,9.795530200E0
7.132053320E-1,3.405000269E-2,2.920950174E0,9.376049995E0,9.820561228E0
7.157009070E-1,9.105000645E-2,2.901000023E0,9.355950356E0,9.795810242E0
7.181927110E-1,1.110000089E-1,2.901000023E0,9.394950867E0,9.833271273E0
7.206845220E-1,1.680000126E-1,2.863050222E0,9.394950867E0,9.822951815E0
7.231779120E-1,1.680000126E-1,2.863050222E0,9.414000511E0,9.841173010E0
7.256712950E-1,2.260500044E-1,2.824950218E0,9.394950867E0,9.813080257E0
7.281631780E-1,2.639999986E-1,2.824950218E0,9.414000511E0,9.832265525E0
7.306550650E-1,3.210000098E-1,2.785950184E0,9.394950867E0,9.804573485E0
7.331502970E-1,3.400500119E-1,2.767050028E0,9.414000511E0,9.818126374E0
7.356455260E-1,3.790500164E-1,2.728950024E0,9.394950867E0,9.790605136E0
7.381387020E-1,3.600000143E-1,2.728950024E0,9.414000511E0,9.808168732E0
7.406318970E-1,3.979500234E-1,2.691000223E0,9.376049995E0,9.762692248E0
7.431254360E-1,4.170000255E-1,2.691000223E0,9.376049995E0,9.763487325E0
7.456189730E-1,4.549500346E-1,2.652000189E0,9.337050438E0,9.717026058E0
7.481122030E-1,4.549500346E-1,2.652000189E0,9.318000793E0,9.698722768E0
7.506054340E-1,4.939500093E-1,2.614050150E0,9.241950035E0,9.617218166E0
7.530991130E-1,4.939500093E-1,2.614050150E0,8.704950333E0,9.102384583E0
7.555928040E-1,5.130000114E-1,2.575950146E0,8.686050415E0,9.074478496E0
7.580853030E-1,5.130000114E-1,2.595000029E0,8.686050415E0,9.079904513E0
7.605778040E-1,5.320500135E-1,2.575950146E0,8.629050255E0,9.021036785E0
7.630725360E-1,5.320500135E-1,2.595000029E0,8.092050552E0,8.514598317E0
7.655672650E-1,5.509500504E-1,2.557050228E0,8.053950310E0,8.468067514E0
7.680591340E-1,5.509500504E-1,2.557050228E0,8.035050392E0,8.450093883E0
7.705510210E-1,5.700000525E-1,2.518050194E0,7.977000237E0,8.384390831E0
7.730451380E-1,5.700000525E-1,2.518050194E0,7.939050198E0,8.348292932E0
7.755392510E-1,5.890500546E-1,2.461050034E0,7.306950569E0,7.732740385E0
7.780337120E-1,5.890500546E-1,2.442000151E0,7.306950569E0,7.726698604E0
7.805281750E-1,6.090000272E-1,2.365050077E0,7.269000530E0,7.668292614E0
7.830228090E-1,5.700000525E-1,2.326950073E0,7.249050140E0,7.634679079E0
7.855174640E-1,5.890500546E-1,2.250000000E0,7.192050457E0,7.558774355E0
7.880114620E-1,5.509500504E-1,2.230950117E0,7.153950214E0,7.513966200E0
7.905054630E-1,5.509500504E-1,2.173950195E0,7.077000141E0,7.423849164E0
7.929966300E-1,5.320500135E-1,2.173950195E0,7.039050102E0,7.386295622E0
7.954878230E-1,5.320500135E-1,2.154000044E0,6.961950302E0,7.306951855E0
7.979798240E-1,5.130000114E-1,2.173950195E0,6.924000263E0,7.275369964E0
8.004718230E-1,5.320500135E-1,2.154000044E0,6.865950108E0,7.215543243E0
8.029641300E-1,5.130000114E-1,2.193000078E0,6.847050190E0,7.207948020E0
8.054564390E-1,5.320500135E-1,2.193000078E0,6.808950424E0,7.173153591E0
8.079509390E-1,5.320500135E-1,2.230950117E0,6.828000546E0,7.202902685E0
8.104454380E-1,5.700000525E-1,2.230950117E0,6.808950424E0,7.187756560E0
8.129393990E-1,5.700000525E-1,2.269050121E0,6.828000546E0,7.217692149E0
8.154333620E-1,6.280500293E-1,2.269050121E0,6.847050190E0,7.240520119E0
8.179255540E-1,6.469500065E-1,2.287950039E0,6.904950142E0,7.302848496E0
8.204177470E-1,6.850500107E-1,2.269050121E0,6.943050385E0,7.336472627E0
8.229112470E-1,7.039500475E-1,2.287950039E0,7.633050442E0,7.999607496E0
8.254047460E-1,7.429500222E-1,2.250000000E0,7.633050442E0,7.992367220E0
8.278975140E-1,7.240500450E-1,2.230950117E0,7.690050602E0,8.039792606E0
8.303902850E-1,7.429500222E-1,1.656000137E0,8.245050430E0,8.442462188E0
8.328840160E-1,7.240500450E-1,1.656000137E0,8.284049988E0,8.478919101E0
8.353777470E-1,7.429500222E-1,1.599000096E0,8.322000504E0,8.506730772E0
8.378724530E-1,6.850500107E-1,1.561050057E0,9.012000084E0,9.171821864E0
8.403671840E-1,7.039500475E-1,9.859500527E-1,9.012000084E0,9.093062668E0
8.428587590E-1,6.660000086E-1,1.004999995E0,9.088050842E0,9.167674139E0
8.453503380E-1,6.850500107E-1,9.670500755E-1,9.796950340E0,9.868369437E0
8.478439930E-1,6.660000086E-1,9.480000734E-1,9.835050583E0,9.903054080E0
8.503376460E-1,6.850500107E-1,8.899500370E-1,1.037205029E1,1.043267615E1
8.528316540E-1,6.660000086E-1,8.710500598E-1,1.042905045E1,1.048653315E1
8.553256930E-1,6.850500107E-1,7.939500213E-1,1.100400066E1,1.105385366E1
8.578193470E-1,6.660000086E-1,7.560000420E-1,1.104195023E1,1.108782020E1
8.603130020E-1,7.039500475E-1,1.429500133E-1,1.108005047E1,1.110331026E1
8.628075020E-1,7.240500450E-1,1.620000005E-1,1.178895092E1,1.181227566E1
8.653020010E-1,7.620000243E-1,1.429500133E-1,1.178895092E1,1.181441672E1
8.677966070E-1,7.620000243E-1,1.620000005E-1,1.184595013E1,1.187153834E1
8.702912240E-1,8.190000653E-1,1.429500133E-1,1.186605072E1,1.189514000E1
8.727847600E-1,8.580000401E-1,1.429500133E-1,1.192305088E1,1.195473718E1
8.752782990E-1,1.450950027E0,1.050000042E-1,1.194195080E1,1.203023150E1
8.777707610E-1,1.450950027E0,1.050000042E-1,1.200000095E1,1.208785770E1
8.802632240E-1,1.509000063E0,6.705000252E-2,1.201905060E1,1.211359378E1
8.827564450E-1,1.546950102E0,6.705000252E-2,1.205700016E1,1.215601922E1
8.852496740E-1,2.122050047E0,4.695000127E-2,1.205700016E1,1.224240800E1
8.877437900E-1,2.122050047E0,4.695000127E-2,1.209495068E1,1.227978553E1
8.902379050E-1,2.160000086E0,2.805000171E-2,1.207605076E1,1.226773773E1
8.927287160E-1,2.179050207E0,4.695000127E-2,1.209495068E1,1.228976387E1
8.952195250E-1,2.256000042E0,2.805000171E-2,1.207605076E1,1.228500407E1
8.977118350E-1,2.869050026E0,2.805000171E-2,1.209495068E1,1.243061007E1
9.002041420E-1,2.887950182E0,9.000000544E-3,1.207605076E1,1.241657518E1
9.026976800E-1,2.869050026E0,2.805000171E-2,1.211505032E1,1.245016783E1
9.051912190E-1,2.887950182E0,9.000000544E-3,1.213395023E1,1.247289403E1
9.076852080E-1,2.907000065E0,2.805000171E-2,1.219095039E1,1.253278531E1
9.101792090E-1,2.944950104E0,-9.000000544E-3,1.222995090E1,1.257952747E1
9.126744390E-1,2.944950104E0,9.000000544E-3,1.290000057E1,1.323188675E1
9.151696700E-1,2.983950138E0,-9.000000544E-3,1.290000057E1,1.324062137E1
9.176628600E-1,2.983950138E0,9.000000544E-3,1.297695065E1,1.331560316E1
9.201560550E-1,3.022050142E0,-2.805000171E-2,1.359000111E1,1.392198635E1
9.226495890E-1,3.022050142E0,-9.000000544E-3,1.362795067E1,1.395900811E1
9.251431260E-1,3.040950060E0,-2.805000171E-2,1.366605091E1,1.400032541E1
9.276388570E-1,3.040950060E0,-2.805000171E-2,1.429800034E1,1.461783081E1
9.301345880E-1,3.060000181E0,-4.695000127E-2,1.429800034E1,1.462185416E1
9.326273160E-1,3.022050142E0,-2.805000171E-2,1.435605049E1,1.467071094E1
9.351200490E-1,3.040950060E0,-4.695000127E-2,1.439400101E1,1.471179277E1
9.376145510E-1,3.003000259E0,-2.805000171E-2,1.447095108E1,1.477928356E1
9.401090500E-1,3.003000259E0,-4.695000127E-2,1.504500103E1,1.534184705E1
9.426007010E-1,2.944950104E0,-2.805000171E-2,1.506405067E1,1.534923909E1
9.450923580E-1,2.944950104E0,-4.695000127E-2,1.504500103E1,1.533059005E1
9.475840880E-1,2.887950182E0,-2.805000171E-2,1.506405067E1,1.533840493E1
9.500758190E-1,2.869050026E0,-4.695000127E-2,1.504500103E1,1.531619105E1
9.525690110E-1,2.256000042E0,-2.805000171E-2,1.506405067E1,1.523206965E1
9.550622040E-1,2.275050163E0,-4.695000127E-2,1.502595043E1,1.519727752E1
9.575548560E-1,2.256000042E0,-2.805000171E-2,1.502595043E1,1.519439072E1
9.600475110E-1,2.275050163E0,-6.599999964E-2,1.496895027E1,1.514099341E1
9.625399730E-1,2.256000042E0,-4.695000127E-2,1.443195057E1,1.460729057E1
9.650324340E-1,2.275050163E0,-6.599999964E-2,1.439400101E1,1.457283343E1
9.675239630E-1,2.218050003E0,-4.695000127E-2,1.439400101E1,1.456396976E1
9.700155020E-1,2.218050003E0,-6.599999964E-2,1.431705093E1,1.448799673E1
9.725077720E-1,2.179050207E0,-4.695000127E-2,1.374300098E1,1.391475980E1
9.750000410E-1,2.160000086E0,-6.599999964E-2,1.370400047E1,1.387334081E1
9.774936170E-1,2.083050013E0,-4.695000127E-2,1.366605091E1,1.382397371E1
9.799871940E-1,2.044950008E0,-4.695000127E-2,1.301505089E1,1.317480833E1
9.824816550E-1,1.987950087E0,-9.000000544E-3,1.303395081E1,1.318468430E1
9.849761160E-1,1.336050034E0,-9.000000544E-3,1.299600029E1,1.306449900E1
9.874698080E-1,1.297950029E0,4.695000127E-2,1.299600029E1,1.306073896E1
9.899635010E-1,1.297950029E0,6.705000252E-2,1.293795109E1,1.300306688E1
9.924560780E-1,1.260000110E0,1.240500063E-1,1.291905022E1,1.298094169E1
9.949486550E-1,1.240950108E0,1.620000005E-1,1.284300041E1,1.290383124E1
9.974400200E-1,1.164000034E0,2.389500141E-1,1.280400085E1,1.285902139E1
9.999314050E-1,1.144950032E0,2.580000162E-1,1.219095039E1,1.224731587E1
1.002423560E0,1.087050080E0,3.349500299E-1,1.219095039E1,1.224390219E1
1.004915713E0,1.087050080E0,3.730500042E-1,1.213395023E1,1.218825633E1
1.007409751E0,1.030050039E0,4.500000179E-1,1.153995037E1,1.159456587E1
1.009903790E0,1.030050039E0,4.690500200E-1,1.150200081E1,1.155755310E1
1.012397890E0,9.919500351E-1,5.260500312E-1,1.148295021E1,1.153771377E1
1.014892007E0,9.730500579E-1,5.449500084E-1,1.083105087E1,1.088831759E1
1.017385544E0,9.340500236E-1,6.030000448E-1,1.083105087E1,1.088796223E1
1.019879083E0,8.959500194E-1,6.220500469E-1,1.075500011E1,1.081016652E1
1.022373084E0,8.190000653E-1,6.600000262E-1,1.014195061E1,1.019634853E1
1.024867083E0,7.999500632E-1,6.600000262E-1,1.010295010E1,1.015603864E1
1.027359245E0,7.429500222E-1,6.990000606E-1,1.006500053E1,1.011656125E1
1.029851400E0,7.240500450E-1,6.990000606E-1,9.414000511E0,9.467642535E0
1.032343901E0,6.850500107E-1,7.369500399E-1,9.414000511E0,9.467618206E0
1.034836400E0,6.660000086E-1,7.369500399E-1,9.337050438E0,9.389737070E0
1.037330554E0,5.890500546E-1,7.750500441E-1,8.782050133E0,8.835841051E0
1.039824707E0,5.700000525E-1,7.750500441E-1,8.743050575E0,8.795824918E0
1.042318996E0,5.130000114E-1,8.329500556E-1,8.704950333E0,8.759745150E0
1.044813267E0,5.130000114E-1,8.520000577E-1,8.072999954E0,8.134027377E0
1.047307150E0,4.939500093E-1,9.090000391E-1,8.072999954E0,8.139016890E0
1.049801035E0,4.939500093E-1,9.289500713E-1,8.016000748E0,8.084751254E0
1.052295151E0,4.750500321E-1,1.004999995E0,7.977000237E0,8.054081592E0
1.054789266E0,4.939500093E-1,1.540950060E0,7.345050335E0,7.521188611E0
1.057284843E0,4.750500321E-1,1.561050057E0,7.345050335E0,7.524115512E0
1.059780420E0,4.939500093E-1,1.561050057E0,7.288050175E0,7.469708110E0
1.062274996E0,4.750500321E-1,1.599000096E0,6.712950230E0,6.917092932E0
1.064769575E0,4.939500093E-1,1.599000096E0,6.675000191E0,6.881599775E0
1.067261882E0,4.750500321E-1,1.656000137E0,6.655950546E0,6.875295387E0
1.069754189E0,4.939500093E-1,1.675950050E0,6.579000473E0,6.807058279E0
1.072247762E0,4.750500321E-1,1.732950091E0,6.024000168E0,6.286284004E0
1.074741339E0,4.939500093E-1,1.752000093E0,5.985000134E0,6.255694809E0
1.077235299E0,4.750500321E-1,1.810050130E0,5.985000134E0,6.270740036E0
1.079729262E0,4.939500093E-1,1.828950047E0,5.928000450E0,6.223361971E0
1.082222376E0,4.750500321E-1,1.885950089E0,5.908950329E0,6.220785662E0
1.084715493E0,4.939500093E-1,1.924950123E0,5.832000256E0,6.161302344E0
1.087208910E0,4.750500321E-1,2.499000072E0,5.794050217E0,6.327850489E0
1.089702295E0,4.939500093E-1,2.479950190E0,5.218950272E0,5.799274221E0
1.092197641E0,4.750500321E-1,2.518050194E0,5.238000393E0,5.831200342E0
1.094692986E0,4.939500093E-1,2.536950111E0,5.200050354E0,5.806946372E0
1.097187178E0,4.750500321E-1,2.595000029E0,5.200050354E0,5.830970877E0
1.099681371E0,4.939500093E-1,2.632950068E0,5.142000198E0,5.797980572E0
1.102174750E0,4.750500321E-1,2.691000223E0,5.122950077E0,5.806183964E0
1.104668097E0,4.939500093E-1,2.710050106E0,5.047050476E0,5.749876233E0
1.107162713E0,4.750500321E-1,2.767050028E0,5.028000355E0,5.758734753E0
1.109657328E0,4.939500093E-1,2.806050062E0,4.951050282E0,5.712337740E0
1.112149633E0,4.750500321E-1,2.863050222E0,4.912950039E0,5.706120152E0
1.114641942E0,4.939500093E-1,2.881950140E0,4.836000443E0,5.651240882E0
1.117138902E0,4.750500321E-1,2.940000057E0,4.798050404E0,5.647172792E0
1.119635861E0,4.939500093E-1,2.959050179E0,4.720950127E0,5.593508261E0
1.122130282E0,4.750500321E-1,3.036000252E0,4.185000420E0,5.192032220E0
1.124624707E0,4.939500093E-1,3.055050135E0,4.165950298E0,5.189649297E0
1.127119362E0,4.750500321E-1,3.130950212E0,4.165950298E0,5.232940249E0
1.129614015E0,4.939500093E-1,3.150000095E0,4.126950264E0,5.215189900E0
1.132107518E0,4.939500093E-1,3.226950169E0,4.108050346E0,5.247215609E0
1.134601019E0,5.320500135E-1,3.246000051E0,4.051050186E0,5.218294852E0
1.137095482E0,5.320500135E-1,3.304050207E0,4.012050152E0,5.224592942E0
1.139589943E0,5.700000525E-1,3.342000246E0,3.936000109E0,5.194801494E0
1.142082711E0,5.700000525E-1,3.399000168E0,3.897000074E0,5.202375590E0
1.144575482E0,6.090000272E-1,3.418950081E0,3.246000051E0,4.753589909E0
1.147070396E0,5.890500546E-1,3.475950241E0,3.265050173E0,4.805180816E0
1.149565317E0,6.469500065E-1,3.495000124E0,3.226950169E0,4.800705945E0
1.152059625E0,6.660000086E-1,3.553050280E0,3.208050251E0,4.833146875E0
1.154553934E0,7.240500450E-1,3.571950197E0,3.150000095E0,4.817216757E0
1.157047048E0,7.429500222E-1,3.610050201E0,2.614050150E0,4.518594403E0
1.159540163E0,7.999500632E-1,3.610050201E0,2.595000029E0,4.517345206E0
1.162033559E0,1.336050034E0,3.648000240E0,2.575950146E0,4.661379045E0
1.164526944E0,1.356000066E0,3.648000240E0,2.518050194E0,4.635430801E0
1.167020789E0,1.336050034E0,3.706050158E0,2.479950190E0,4.655103694E0
1.169514636E0,1.356000066E0,3.706050158E0,1.867050052E0,4.365709546E0
1.172007827E0,1.336050034E0,3.763050079E0,1.885950089E0,4.416150284E0
1.174501020E0,1.356000066E0,3.783000231E0,1.848000050E0,4.423226323E0
1.176995053E0,1.336050034E0,3.840000153E0,1.848000050E0,4.466064828E0
1.179489092E0,1.375050068E0,3.859050274E0,1.810050130E0,4.478762461E0
1.181984784E0,1.375050068E0,3.916950226E0,1.789950132E0,4.520750296E0
1.184480477E0,1.432050109E0,3.936000109E0,1.732950091E0,4.532767410E0
1.186974898E0,1.471050024E0,3.973950148E0,1.714050055E0,4.571021280E0
1.189469323E0,1.528050065E0,3.973950148E0,1.656000137E0,4.568320614E0
1.191964241E0,1.546950102E0,4.012050152E0,1.636950135E0,4.601000629E0
1.194459164E0,1.585050106E0,4.012050152E0,1.579950094E0,4.594036630E0
1.196953355E0,1.566000104E0,4.032000065E0,1.561050057E0,4.598506076E0
1.199447548E0,1.585050106E0,4.012050152E0,1.503000021E0,4.568143969E0
1.201940279E0,1.566000104E0,4.032000065E0,1.483950019E0,4.572908102E0
1.204433010E0,1.585050106E0,3.993000269E0,1.426950097E0,4.526877684E0
1.206925059E0,1.546950102E0,3.993000269E0,1.387950063E0,4.501500988E0
1.209417098E0,1.528050065E0,3.936000109E0,7.560000420E-1,4.289355420E0
1.211909983E0,1.450950027E0,3.897000074E0,7.750500441E-1,4.229960772E0
1.214402866E0,1.432050109E0,3.285000086E0,7.560000420E-1,3.662448517E0
1.216897174E0,1.375050068E0,3.304050207E0,7.560000420E-1,3.657737897E0
1.219391481E0,1.336050034E0,3.265050173E0,6.990000606E-1,3.596412575E0
1.221885033E0,7.240500450E-1,3.265050173E0,6.600000262E-1,3.408870947E0
1.224378572E0,7.429500222E-1,3.208050251E0,6.705000252E-2,3.293638847E0
1.226871496E0,7.240500450E-1,3.189000130E0,8.595000207E-2,3.271292970E0
1.229364419E0,7.429500222E-1,3.112050056E0,6.705000252E-2,3.200207180E0
1.231858304E0,6.850500107E-1,3.073950052E0,6.705000252E-2,3.150072720E0
1.234352187E0,6.660000086E-1,3.016050100E0,9.000000544E-3,3.088720644E0
1.236846010E0,5.890500546E-1,2.997000217E0,-9.000000544E-3,3.054352840E0
1.239339819E0,-6.105000153E-2,2.940000057E0,-6.599999964E-2,2.941374413E0
1.241834011E0,-7.995000482E-2,2.920950174E0,-6.599999964E-2,2.922789408E0
1.244328204E0,-9.900000691E-2,2.844000101E0,-1.050000042E-1,2.847659140E0
1.246822972E0,-1.570500135E-1,2.806050062E0,-8.595000207E-2,2.811755512E0
1.249317741E0,-1.759500057E-1,2.116050005E0,-1.050000042E-1,2.125947090E0
1.251812013E0,-2.329500169E-1,2.116050005E0,-8.595000207E-2,2.130568172E0
1.254306284E0,-2.140500098E-1,2.038950205E0,-6.599999964E-2,2.051217040E0
1.256799245E0,-1.950000077E-1,1.312050104E0,6.030000448E-1,1.457089405E0
1.259292208E0,-1.180500090E-1,1.254000068E0,6.030000448E-1,1.396445856E0
1.261785554E0,4.170000255E-1,6.990000606E-1,1.177950025E0,1.431801790E0
1.264278899E0,4.360500276E-1,6.600000262E-1,1.177950025E0,1.418910118E0
1.266771952E0,4.549500346E-1,6.220500469E-1,1.234950066E0,1.455687968E0
1.269265029E0,4.750500321E-1,-4.695000127E-2,1.867050052E0,1.927109943E0
1.271761647E0,4.170000255E-1,-2.805000171E-2,1.905000091E0,1.950307968E0
1.274258260E0,3.790500164E-1,-6.599999964E-2,1.924950123E0,1.963025188E0
1.276751027E0,-5.010000467E-1,-8.595000207E-2,2.536950111E0,2.587374020E0
1.279243798E0,-5.209500194E-1,-1.429500133E-1,2.557050228E0,2.613489908E0
1.281738242E0,-1.114050031E0,-1.620000005E-1,3.399000168E0,3.580580066E0
1.284232703E0,-1.132950068E0,-2.200500071E-1,4.069950104E0,4.230424530E0
1.286726278E0,-1.726950049E0,-2.580000162E-1,4.740000248E0,5.051388208E0
1.289219857E0,-1.726950049E0,-3.349500299E-1,5.487000465E0,5.762093552E0
1.291714280E0,-1.765950084E0,-9.090000391E-1,6.196050167E0,6.506604217E0
1.294208703E0,-1.804050088E0,-9.280500412E-1,6.943050385E0,7.233382490E0
1.296704126E0,-1.879950047E0,-9.280500412E-1,7.671000481E0,7.952341632E0
1.299199549E0,-2.569950104E0,-9.859500527E-1,8.418000221E0,8.856605939E0
1.301694778E0,-2.626950026E0,-1.004999995E0,9.184050560E0,9.605085950E0
1.304190011E0,-2.647050142E0,-1.579950094E0,9.949950218E0,1.041655539E1
1.306685049E0,-3.259950161E0,-1.561050057E0,1.071600056E1,1.130914764E1
1.309180088E0,-3.240000248E0,-1.599000096E0,1.142505074E1,1.198274540E1
1.311673048E0,-3.298050165E0,-1.618050098E0,1.234395027E1,1.287898790E1
1.314166011E0,-3.336000204E0,-1.695000052E0,1.311105061E1,1.363457262E1
1.316659857E0,-3.412950277E0,-1.732950091E0,1.399200058E1,1.450611684E1
1.319153702E0,-3.967950106E0,-2.346000195E0,1.473900032E1,1.544300733E1
1.321647394E0,-4.006950378E0,-2.326950073E0,1.542795086E1,1.610875587E1
1.324141087E0,-4.006950378E0,-2.346000195E0,1.609905052E1,1.675526174E1
1.326634414E0,-4.045050144E0,-2.346000195E0,1.682700157E1,1.746465372E1
1.329127761E0,-4.045050144E0,-2.383949995E0,1.738199997E1,1.800498740E1
1.331622416E0,-4.063950062E0,-2.383949995E0,1.745895004E1,1.808352411E1
1.334117069E0,-4.063950062E0,-2.422049999E0,1.828200150E1,1.888421550E1
1.336610721E0,-4.083000183E0,-2.442000151E0,1.834005165E1,1.894707761E1
1.339104376E0,-4.063950062E0,-2.499000072E0,1.887600136E1,1.946956904E1
1.341599002E0,-4.083000183E0,-2.536950111E0,1.891394997E1,1.951523788E1
1.344093655E0,-4.063950062E0,-3.169050217E0,1.893405151E1,1.962286615E1
1.346588115E0,-4.063950062E0,-3.169050217E0,1.899105072E1,1.967787023E1
1.349082578E0,-4.006950378E0,-3.208050251E0,1.902900124E1,1.970913813E1
1.351578386E0,-3.967950106E0,-3.226950169E0,1.910595131E1,1.977865544E1
1.354074193E0,-3.298050165E0,-3.283950090E0,1.914405060E1,1.970167852E1
1.356567903E0,-3.316950083E0,-3.304050207E0,1.973805046E1,2.028569796E1
1.359061596E0,-3.259950161E0,-3.342000246E0,1.973805046E1,2.028267430E1
1.361554519E0,-2.647050142E0,-3.342000246E0,1.979595184E1,2.024982838E1
1.364047442E0,-2.626950026E0,-3.379950047E0,2.033205032E1,2.077780545E1
1.366541482E0,-2.608050108E0,-3.361050129E0,2.038905144E1,2.082815407E1
1.369035519E0,-2.569950104E0,-3.399000168E0,2.102100182E1,2.144855154E1
1.371531058E0,-2.569950104E0,-3.399000168E0,2.107905006E1,2.150544576E1
1.374026597E0,-2.532000065E0,-3.457050085E0,2.167305183E1,2.209260952E1
1.376520403E0,-2.532000065E0,-3.495000124E0,2.173005104E1,2.215448416E1
1.379014212E0,-2.512950182E0,-4.069950104E0,2.245800018E1,2.296173305E1
1.381507597E0,-2.512950182E0,-4.069950104E0,2.251500130E1,2.301748674E1
1.384000982E0,-2.493000031E0,-4.126950264E0,2.310900116E1,2.360662412E1
1.386496223E0,-2.493000031E0,-4.165950298E0,2.314800072E1,2.365164113E1
1.388991454E0,-2.455050230E0,-4.242000103E0,2.318595123E1,2.369831579E1
1.391484875E0,-2.436000109E0,-4.279950142E0,2.385600090E1,2.435899934E1
1.393978300E0,-1.822950125E0,-4.357050419E0,2.385600090E1,2.431904222E1
1.396472569E0,-1.842000127E0,-4.375950336E0,2.389500046E1,2.436212127E1
1.398966838E0,-1.785000086E0,-4.414950371E0,2.389500046E1,2.436491451E1
1.401461155E0,-1.765950084E0,-4.394999981E0,2.391405106E1,2.437860624E1
1.403955464E0,-1.038000107E0,-4.414950371E0,2.389500046E1,2.432160105E1
1.406449462E0,-1.038000107E0,-4.394999981E0,2.389500046E1,2.431798750E1
1.408943463E0,-9.799500704E-1,-4.414950371E0,2.383695030E1,2.426215754E1
1.411439003E0,-9.420000315E-1,-4.375950336E0,2.379900169E1,2.421629177E1
1.413934540E0,-3.670500219E-1,-4.357050419E0,2.308995056E1,2.350030704E1
1.416428731E0,-3.670500219E-1,-4.300050259E0,2.307105064E1,2.347122783E1
1.418922924E0,-3.289500177E-1,-4.279950142E0,2.238105011E1,2.278897947E1
1.421416924E0,-3.289500177E-1,-4.222949982E0,2.236200142E1,2.275962702E1
1.423910925E0,-2.910000086E-1,-4.204050064E0,2.165295029E1,2.205921517E1
1.426401808E0,-3.100500107E-1,-4.146000385E0,2.161500168E1,2.201121868E1
1.428892693E0,-2.719500065E-1,-4.126950264E0,2.059995079E1,2.101103633E1
1.431385349E0,-2.910000086E-1,-4.069950104E0,2.056200027E1,2.096294421E1
1.433878002E0,-2.520000041E-1,-4.069950104E0,1.960395050E1,2.002355795E1
1.436372771E0,-2.719500065E-1,-4.030950069E0,1.906800079E1,1.949131010E1
1.438867540E0,-2.520000041E-1,-4.030950069E0,1.899105072E1,1.941576859E1
1.441360308E0,-2.719500065E-1,-3.993000269E0,1.805205154E1,1.849039137E1
1.443853079E0,-2.520000041E-1,-3.993000269E0,1.741995049E1,1.787350637E1
1.446345348E0,-2.719500065E-1,-3.936000109E0,1.688400078E1,1.733884471E1
1.448837617E0,-2.719500065E-1,-3.916950226E0,1.629000092E1,1.675650876E1
1.451329155E0,-3.100500107E-1,-3.859050274E0,1.565805054E1,1.612956747E1
1.453820694E0,-3.289500177E-1,-3.322950125E0,1.496895027E1,1.533687315E1
1.456312886E0,-4.060500264E-1,-3.304050207E0,1.435605049E1,1.473695390E1
1.458805079E0,-4.440000355E-1,-3.304050207E0,1.370400047E1,1.410367019E1
1.461298929E0,-1.114050031E0,-3.226950169E0,1.299600029E1,1.343690211E1
1.463792774E0,-1.095000029E0,-2.518050194E0,1.232505035E1,1.262721141E1
1.466285389E0,-1.153050065E0,-2.479950190E0,1.165500069E1,1.197157961E1
1.468778006E0,-1.171950102E0,-2.442000151E0,1.102305031E1,1.135096779E1
1.471272006E0,-1.248000026E0,-1.752000093E0,1.044795036E1,1.066708372E1
1.473766005E0,-1.287000060E0,-1.752000093E0,1.037205029E1,1.059741953E1
1.476258765E0,-1.344000101E0,-1.675050020E0,9.414000511E0,9.655854932E0
1.478751536E0,-1.918950081E0,-9.859500527E-1,9.337050438E0,9.583056809E0
1.481244575E0,-1.938000083E0,-9.480000734E-1,8.513999939E0,8.783094183E0
1.483737612E0,-1.938000083E0,-9.280500412E-1,8.455950737E0,8.724690485E0
1.486230573E0,-1.957050085E0,-8.710500598E-1,7.900950432E0,8.186195146E0
1.488723536E0,-1.957050085E0,-8.329500556E-1,7.861950397E0,8.144575795E0
1.491215074E0,-1.975950122E0,-7.560000420E-1,7.824000359E0,8.104992076E0
1.493706613E0,-1.975950122E0,-7.180500627E-1,7.096050262E0,7.400939407E0
1.496199344E0,-1.995000124E0,-6.600000262E-1,7.096050262E0,7.400645570E0
1.498692073E0,-1.975950122E0,-6.409500241E-1,7.039050102E0,7.339170400E0
1.501184227E0,-1.995000124E0,-5.839500427E-1,6.406950474E0,6.735728433E0
1.503676382E0,-1.975950122E0,-5.650500059E-1,6.367950439E0,6.691371548E0
1.506169011E0,-1.995000124E0,-5.070000291E-1,6.330000401E0,6.656273702E0
1.508661626E0,-1.975950122E0,-4.879500270E-1,5.679000378E0,6.032704153E0
1.511155318E0,-1.975950122E0,-4.300500154E-1,5.679000378E0,6.028297205E0
1.513649011E0,-1.938000083E0,-4.110000134E-1,5.620950222E0,5.959852912E0
1.516141971E0,-1.938000083E0,-3.349500299E-1,5.583000183E0,5.919284322E0
1.518634934E0,-1.900050044E0,-2.959500253E-1,4.932000160E0,5.293619005E0
1.521128438E0,-1.900050044E0,-2.200500071E-1,4.951050282E0,5.307684153E0
1.523621937E0,-1.842000127E0,3.160500228E-1,4.912950039E0,5.256417998E0
1.526115668E0,-1.822950125E0,3.349500299E-1,4.893000126E0,5.232283336E0
1.528609399E0,-1.765950084E0,3.349500299E-1,4.836000443E0,5.159231677E0
1.531102591E0,-1.746000051E0,3.730500042E-1,4.816950321E0,5.137187254E0
1.533595784E0,-1.689000130E0,3.730500042E-1,4.759050369E0,5.063639814E0
1.536090098E0,-1.689000130E0,4.309500158E-1,4.740000248E0,5.050350652E0
1.538584405E0,-1.630950093E0,4.500000179E-1,4.683000088E0,4.979255772E0
1.541079327E0,-1.593000054E0,5.260500312E-1,4.663950443E0,4.956491859E0
1.543574250E0,-1.536000013E0,5.650500059E-1,4.606050014E0,4.888176990E0
1.546069673E0,-1.516950130E0,6.220500469E-1,4.587000370E0,4.871206868E0
1.548565096E0,-1.459050059E0,6.600000262E-1,4.510050297E0,4.785914833E0
1.551059865E0,-1.440000057E0,7.180500627E-1,4.471950054E0,4.752634358E0
1.553554636E0,-1.381950021E0,7.560000420E-1,3.877950191E0,4.185668359E0
1.556048751E0,-1.381950021E0,8.329500556E-1,3.897000074E0,4.217843197E0
1.558542866E0,-1.306050062E0,8.710500598E-1,3.859050274E0,4.166144979E0
1.561036135E0,-1.267950058E0,9.289500713E-1,3.859050274E0,4.166883080E0
1.563529404E0,-1.210050106E0,9.480000734E-1,3.820950270E0,4.118566057E0
1.566022636E0,-1.191000104E0,1.004999995E0,3.802050114E0,4.109025591E0
1.568515867E0,-1.114050031E0,1.024049997E0,3.744000196E0,4.038232700E0
1.571010637E0,-1.095000029E0,1.101000071E0,3.744000196E0,4.053241134E0
1.573505404E0,-1.018950105E0,1.138950109E0,3.687000275E0,3.991169965E0
1.575999865E0,-9.799500704E-1,1.216050029E0,3.667950153E0,3.986594805E0
1.578494328E0,-9.229500294E-1,1.254000068E0,3.610050201E0,3.931515660E0
1.580987968E0,-9.040500522E-1,1.867050052E0,3.610050201E0,4.163609594E0
1.583481621E0,-8.460000157E-1,1.848000050E0,3.571950197E0,4.109701744E0
1.585974852E0,-8.269500136E-1,1.885950089E0,3.571950197E0,4.123042841E0
1.588468083E0,-7.699500322E-1,1.905000091E0,3.534000158E0,4.087909676E0
1.590962276E0,-7.699500322E-1,1.963050127E0,3.534000158E0,4.115282004E0
1.593456467E0,-7.120500207E-1,2.001000166E0,3.514050245E0,4.106040188E0
1.595950486E0,-7.120500207E-1,2.595000029E0,3.534000158E0,4.441868695E0
1.598444487E0,-6.550500393E-1,2.575950146E0,3.514050245E0,4.406036636E0
1.600939257E0,-6.550500393E-1,2.632950068E0,3.534000158E0,4.455409491E0
1.603434026E0,-5.970000029E-1,2.652000189E0,3.514050245E0,4.442754003E0
1.605926894E0,-5.779500008E-1,2.728950024E0,3.534000158E0,4.502260716E0
1.608419781E0,-5.209500194E-1,2.767050028E0,3.514050245E0,4.502943915E0
1.610913012E0,-5.010000467E-1,3.342000246E0,3.534000158E0,4.889695677E0
1.613406241E0,-4.440000355E-1,3.322950125E0,3.534000158E0,4.871169334E0
1.615899779E0,-4.440000355E-1,3.361050129E0,3.553050280E0,4.911004000E0
1.618393318E0,-3.859500289E-1,3.361050129E0,3.534000158E0,4.892317704E0
1.620884730E0,-3.480000198E-1,3.399000168E0,3.553050280E0,4.929348075E0
1.623376155E0,-2.910000086E-1,3.418950081E0,3.534000158E0,4.925754539E0
1.625869194E0,-2.719500065E-1,3.475950241E0,3.553050280E0,4.977986860E0
1.628362231E0,-2.140500098E-1,3.495000124E0,3.534000158E0,4.974937225E0
1.630853499E0,-1.950000077E-1,3.571950197E0,3.553050280E0,5.041926170E0
1.633344770E0,-1.570500135E-1,3.610050201E0,3.534000158E0,5.054333218E0
1.635836722E0,-1.570500135E-1,3.687000275E0,3.553050280E0,5.122772884E0
1.638328683E0,-1.180500090E-1,4.281000137E0,3.534000158E0,5.552481886E0
1.640820375E0,-1.180500090E-1,4.300050259E0,3.553050280E0,5.579295146E0
1.643312068E0,-7.995000482E-2,4.300050259E0,3.534000158E0,5.566505308E0
1.645805031E0,-7.995000482E-2,4.338000298E0,3.553050280E0,5.607923401E0
1.648297992E0,-4.200000316E-2,4.338000298E0,3.534000158E0,5.595459561E0
1.650790567E0,-4.200000316E-2,4.394999981E0,3.553050280E0,5.651721430E0
1.653283144E0,-3.000000026E-3,4.394999981E0,3.534000158E0,5.639609113E0
1.655776107E0,-2.295000106E-2,4.453050137E0,3.553050280E0,5.696871818E0
1.658269068E0,1.500000060E-2,4.471950054E0,3.553050280E0,5.711630991E0
1.660760899E0,3.405000269E-2,4.510050297E0,3.591000080E0,5.765153481E0
1.663252746E0,9.105000645E-2,4.510050297E0,3.591000080E0,5.765771879E0
1.665745324E0,1.110000089E-1,4.549050331E0,3.628950119E0,5.820262785E0
1.668237901E0,1.680000126E-1,4.549050331E0,3.628950119E0,5.821628800E0
1.670730707E0,1.680000126E-1,4.587000370E0,3.687000275E0,5.887509442E0
1.673223516E0,2.260500044E-1,4.587000370E0,3.706050158E0,5.901396341E0
1.675716731E0,2.260500044E-1,4.624950409E0,3.763050079E0,5.966725299E0
1.678209962E0,2.639999986E-1,4.624950409E0,3.783000231E0,5.980882295E0
1.680701615E0,2.639999986E-1,4.663950443E0,3.840000153E0,6.047125839E0
1.683193270E0,3.019500077E-1,4.644000053E0,3.877950191E0,6.057756019E0
1.685686636E0,2.830500007E-1,4.683000088E0,3.955050230E0,6.136206438E0
1.688180021E0,3.210000098E-1,4.683000088E0,4.530000210E0,6.523375869E0
1.690672673E0,3.019500077E-1,4.720950127E0,4.549050331E0,6.562956866E0
1.693165328E0,3.210000098E-1,4.720950127E0,4.549050331E0,6.563860908E0
1.695657636E0,3.019500077E-1,4.759050369E0,4.606050014E0,6.629889212E0
1.698149943E0,3.210000098E-1,4.740000248E0,4.644000053E0,6.643596906E0
1.700643478E0,3.019500077E-1,4.759050369E0,5.257050037E0,7.097627020E0
1.703137015E0,3.210000098E-1,4.740000248E0,5.238000393E0,7.071583378E0
1.705629322E0,2.830500007E-1,4.759050369E0,5.277000427E0,7.111639138E0
1.708121631E0,2.830500007E-1,4.740000248E0,5.296050072E0,7.113077113E0
1.710614092E0,2.449500114E-1,4.759050369E0,5.353050232E0,7.166847822E0
1.713106553E0,2.449500114E-1,4.740000248E0,5.371950150E0,7.168364616E0
1.715597634E0,2.260500044E-1,4.740000248E0,5.430000305E0,7.211352458E0
1.718088713E0,2.260500044E-1,4.702050209E0,5.467950344E0,7.215182308E0
1.720582060E0,1.680000126E-1,4.702050209E0,6.061950207E0,7.673639324E0
1.723075405E0,1.680000126E-1,4.663950443E0,6.061950207E0,7.650352806E0
1.725569096E0,1.110000089E-1,4.663950443E0,6.118950367E0,7.694563557E0
1.728062789E0,9.105000645E-2,4.624950409E0,6.157950401E0,7.701870522E0
1.730557006E0,5.295000225E-2,4.624950409E0,6.790050507E0,8.215701788E0
1.733051199E0,5.295000225E-2,4.587000370E0,6.790050507E0,8.194398207E0
1.735543042E0,1.500000060E-2,4.587000370E0,6.865950108E0,8.257243382E0
1.738034891E0,-3.000000026E-3,4.549050331E0,7.555950165E0,8.819651399E0
1.740529046E0,-4.200000316E-2,4.549050331E0,7.594050407E0,8.852413485E0
1.743023199E0,-4.200000316E-2,4.510050297E0,7.633050442E0,8.865989890E0
1.745517616E0,-6.105000153E-2,4.491000175E0,8.284049988E0,9.423284665E0
1.748012039E0,-7.995000482E-2,4.434000015E0,8.284049988E0,9.396394646E0
1.750506692E0,-1.369500011E-1,4.394999981E0,8.341050148E0,9.429098457E0
1.753001347E0,-1.570500135E-1,4.318950176E0,8.916000366E0,9.908231823E0
1.755495807E0,-2.140500098E-1,4.281000137E0,8.953950882E0,9.927034601E0
1.757990270E0,-2.329500169E-1,3.706050158E0,8.973000526E0,9.711014979E0
1.760484266E0,-2.719500065E-1,3.724950075E0,9.049950600E0,9.790342983E0
1.762978265E0,-2.910000086E-1,3.687000275E0,9.643950462E0,1.032881564E1
1.765471304E0,-3.670500219E-1,3.667950153E0,9.682050705E0,1.036005260E1
1.767964343E0,-3.859500289E-1,3.610050201E0,9.682050705E0,1.034038325E1
1.770458651E0,-4.440000355E-1,3.610050201E0,9.739950180E0,1.039693359E1
1.772952958E0,-4.630500078E-1,3.553050280E0,9.778050423E0,1.041387784E1
1.775447170E0,-5.209500194E-1,3.534000158E0,9.853950500E0,1.048145441E1
1.777941363E0,-5.400000215E-1,3.475950241E0,9.892950058E0,1.049972814E1
1.780433669E0,-1.114050031E0,3.457050085E0,1.052505016E1,1.113413597E1
1.782925978E0,-1.075950027E0,3.418950081E0,1.050600052E1,1.110058264E1
1.785421017E0,-1.075950027E0,3.399000168E0,1.054395008E1,1.113039774E1
1.787916054E0,-1.038000107E0,3.361050129E0,1.054395008E1,1.111525913E1
1.790408567E0,-1.038000107E0,3.361050129E0,1.058205032E1,1.115140759E1
1.792901068E0,-9.610500336E-1,3.304050207E0,1.058205032E1,1.112745047E1
1.795396724E0,-9.229500294E-1,3.285000086E0,1.062105083E1,1.115570630E1
1.797892377E0,-3.480000198E-1,3.226950169E0,1.062105083E1,1.110590078E1
1.800386105E0,-3.480000198E-1,3.208050251E0,1.065900040E1,1.113674009E1
1.802879838E0,-3.100500107E-1,3.150000095E0,1.065900040E1,1.111903418E1
1.805373073E0,-3.289500177E-1,3.130950212E0,1.067805004E1,1.113246648E1
1.807866304E0,-2.910000086E-1,3.073950052E0,1.065900040E1,1.109721314E1
1.810360267E0,-2.719500065E-1,3.055050135E0,1.067805004E1,1.110981732E1
1.812854228E0,-2.140500098E-1,2.997000217E0,1.065900040E1,1.107439015E1
1.815347149E0,-1.950000077E-1,2.997000217E0,1.065900040E1,1.107403832E1
1.817840074E0,-1.570500135E-1,2.959050179E0,1.060095024E1,1.100730615E1
1.820334800E0,-1.570500135E-1,2.940000057E0,1.058205032E1,1.098399081E1
1.822829567E0,-1.180500090E-1,2.901000023E0,1.050600052E1,1.089980660E1
1.825322951E0,-1.180500090E-1,2.901000023E0,1.048695087E1,1.088144639E1
1.827816338E0,-7.995000482E-2,2.863050222E0,1.042905045E1,1.081519957E1
1.830308183E0,-7.995000482E-2,2.863050222E0,1.041000080E1,1.079683126E1
1.832800030E0,-6.105000153E-2,2.824950218E0,1.033305073E1,1.071242308E1
1.835292799E0,-6.105000153E-2,2.844000101E0,1.031400013E1,1.069909633E1
1.837785568E0,-4.200000316E-2,2.824950218E0,1.025700092E1,1.063899317E1
1.840279413E0,-6.105000153E-2,2.844000101E0,1.025700092E1,1.064415951E1
1.842773260E0,-4.200000316E-2,2.824950218E0,1.021800041E1,1.060139803E1
1.845267299E0,-6.105000153E-2,2.844000101E0,1.023795033E1,1.062580305E1
1.847761338E0,-4.200000316E-2,2.824950218E0,1.021800041E1,1.060139803E1
1.850255034E0,-6.105000153E-2,2.844000101E0,1.023795033E1,1.062580305E1
1.852748727E0,-6.105000153E-2,2.824950218E0,1.023795033E1,1.062072021E1
1.855241803E0,-1.180500090E-1,2.844000101E0,1.027605057E1,1.066299619E1
1.857734880E0,-1.369500011E-1,2.844000101E0,1.029495049E1,1.068143705E1
1.860229612E0,-1.950000077E-1,2.863050222E0,1.035195065E1,1.074234442E1
1.862724343E0,-1.950000077E-1,2.844000101E0,1.037205029E1,1.075666253E1
1.865218211E0,-2.329500169E-1,2.863050222E0,1.042905045E1,1.081741261E1
1.867712058E0,-2.520000041E-1,2.844000101E0,1.046700096E1,1.084942163E1
1.870204097E0,-2.910000086E-1,2.863050222E0,1.054395008E1,1.092962126E1
1.872696136E0,-3.100500107E-1,2.844000101E0,1.056300068E1,1.094355751E1
1.875189675E0,-3.859500289E-1,2.863050222E0,1.062105083E1,1.100694030E1
1.877683212E0,-4.060500264E-1,2.844000101E0,1.063995075E1,1.102096934E1
1.880177092E0,-4.630500078E-1,2.863050222E0,1.069695091E1,1.108315076E1
1.882670939E0,-4.819500148E-1,2.844000101E0,1.071600056E1,1.109744477E1
1.885164014E0,-5.400000215E-1,2.844000101E0,1.075500011E1,1.113777195E1
1.887657093E0,-5.400000215E-1,2.806050062E0,1.075500011E1,1.112814200E1
1.890150939E0,-5.779500008E-1,2.806050062E0,1.077405071E1,1.114845783E1
1.892644784E0,-5.590500236E-1,2.767050028E0,1.075500011E1,1.111931339E1
1.895140265E0,-5.970000029E-1,2.767050028E0,1.077405071E1,1.113971021E1
1.897635764E0,-5.779500008E-1,2.728950024E0,1.075500011E1,1.111086054E1
1.900130225E0,-5.970000029E-1,2.728950024E0,1.075500011E1,1.111186774E1
1.902624688E0,-5.779500008E-1,2.691000223E0,1.071600056E1,1.106382286E1
1.905118111E0,-5.970000029E-1,2.691000223E0,1.071600056E1,1.106483435E1
1.907611534E0,-5.779500008E-1,2.652000189E0,1.067805004E1,1.101761698E1
1.910106012E0,-5.970000029E-1,2.652000189E0,1.065900040E1,1.100017288E1
1.912600473E0,-5.779500008E-1,2.614050150E0,1.060095024E1,1.093377476E1
1.915095202E0,-5.970000029E-1,2.614050150E0,1.058205032E1,1.091647637E1
1.917589933E0,-5.779500008E-1,2.575950146E0,1.050600052E1,1.083261705E1
1.920084433E0,-5.970000029E-1,2.575950146E0,9.949950218E0,1.029531143E1
1.922578934E0,-5.590500236E-1,2.557050228E0,9.931050301E0,1.027019001E1
1.925071837E0,-5.779500008E-1,2.575950146E0,9.931050301E0,1.027595764E1
1.927564722E0,-5.400000215E-1,2.557050228E0,9.874050140E0,1.021405757E1
1.930056914E0,-5.590500236E-1,2.575950146E0,9.853950500E0,1.020041159E1
1.932549107E0,-5.400000215E-1,2.557050228E0,9.796950340E0,1.013954347E1
1.935042492E0,-5.590500236E-1,2.575950146E0,9.778050423E0,1.012710848E1
1.937535875E0,-5.400000215E-1,2.557050228E0,9.720000267E0,1.006521292E1
1.940029721E0,-5.590500236E-1,2.575950146E0,9.700950623E0,1.005268616E1
1.942523568E0,-5.400000215E-1,2.557050228E0,9.643950462E0,9.991790951E0
1.945017991E0,-5.590500236E-1,2.575950146E0,9.625050545E0,9.979461612E0
1.947512414E0,-5.400000215E-1,2.557050228E0,9.567000389E0,9.917540135E0
1.950007530E0,-5.590500236E-1,2.575950146E0,9.547950745E0,9.905120873E0
1.952502645E0,-5.400000215E-1,2.557050228E0,9.490950584E0,9.844198743E0
1.954996658E0,-5.590500236E-1,2.575950146E0,9.471000671E0,9.830966880E0
1.957490659E0,-5.400000215E-1,2.557050228E0,9.414000511E0,9.770031296E0
1.959985390E0,-5.590500236E-1,2.575950146E0,9.376049995E0,9.739526149E0
1.962480121E0,-5.400000215E-1,2.557050228E0,9.298950195E0,9.659222568E0
1.964973966E0,-5.590500236E-1,2.575950146E0,9.261000633E0,9.628820738E0
1.967467813E0,-5.400000215E-1,2.557050228E0,9.184050560E0,9.548659099E0
1.969960467E0,-5.590500236E-1,2.575950146E0,9.145950317E0,9.518217443E0
1.972453120E0,-5.209500194E-1,2.557050228E0,9.069000244E0,9.436983640E0
1.974947083E0,-5.400000215E-1,2.575950146E0,9.031050682E0,9.406752660E0
1.977441044E0,-5.209500194E-1,2.557050228E0,8.953950882E0,9.326474746E0
1.979936005E0,-5.400000215E-1,2.575950146E0,8.916000366E0,9.296353140E0
1.982430968E0,-5.209500194E-1,2.575950146E0,8.857950211E0,9.239599018E0
1.984926674E0,-5.400000215E-1,2.595000029E0,8.839050293E0,9.227916084E0
1.987422367E0,-5.209500194E-1,2.575950146E0,8.782050133E0,9.166859474E0
1.989916942E0,-5.400000215E-1,2.595000029E0,8.763000488E0,9.155097090E0
1.992411521E0,-5.209500194E-1,2.595000029E0,8.723999977E0,9.116665491E0
1.994906016E0,-5.400000215E-1,2.632950068E0,8.723999977E0,9.128647308E0
1.997400515E0,-5.209500194E-1,2.632950068E0,8.686050415E0,9.091275312E0
1.999895901E0,-5.400000215E-1,2.671950102E0,8.686050415E0,9.103756872E0
2.002391284E0,-5.400000215E-1,2.671950102E0,8.647950172E0,9.067411955E0
2.004885398E0,-5.779500008E-1,2.728950024E0,8.647950172E0,9.086706588E0
2.007379515E0,-5.590500236E-1,2.748000145E0,8.608950615E0,9.054174309E0
2.009875050E0,-5.970000029E-1,2.785950184E0,8.608950615E0,9.068183838E0
2.012370587E0,-5.779500008E-1,2.785950184E0,8.571000099E0,9.030923947E0
2.014865817E0,-6.160500050E-1,2.844000101E0,8.571000099E0,9.051513513E0
2.017361050E0,-5.970000029E-1,2.844000101E0,8.533050537E0,9.014305134E0
2.019856435E0,-6.160500050E-1,2.881950140E0,8.513999939E0,9.009625363E0
2.022351818E0,-5.970000029E-1,2.881950140E0,8.475000381E0,8.971492467E0
2.024846586E0,-6.160500050E-1,2.920950174E0,8.455950737E0,8.967417153E0
2.027341357E0,-5.779500008E-1,2.920950174E0,8.398950577E0,8.911136118E0
2.029836473E0,-5.970000029E-1,2.959050179E0,8.380050659E0,8.907167676E0
2.032331588E0,-5.590500236E-1,2.959050179E0,8.322000504E0,8.850096455E0
2.034825702E0,-5.779500008E-1,2.997000217E0,8.284049988E0,8.828449508E0
2.037319819E0,-5.400000215E-1,2.997000217E0,8.226000786E0,8.771584763E0
2.039811534E0,-5.590500236E-1,3.036000252E0,8.206950188E0,8.768344533E0
2.042303227E0,-5.400000215E-1,3.036000252E0,8.131050110E0,8.696141296E0
2.044797536E0,-5.590500236E-1,3.073950052E0,8.110950470E0,8.691905624E0
2.047291843E0,-5.400000215E-1,3.073950052E0,8.053950310E0,8.637527687E0
2.049785996E0,-5.590500236E-1,3.112050056E0,8.053950310E0,8.652370084E0
2.052280151E0,-5.400000215E-1,3.112050056E0,8.016000748E0,8.615841431E0
2.054776180E0,-5.590500236E-1,3.150000095E0,8.016000748E0,8.630834578E0
2.057272179E0,-5.400000215E-1,3.150000095E0,7.977000237E0,8.593406391E0
2.059766678E0,-5.590500236E-1,3.169950247E0,7.996050358E0,8.619625446E0
2.062261179E0,-5.209500194E-1,3.150000095E0,7.977000237E0,8.592230345E0
2.064755294E0,-5.010000467E-1,3.169950247E0,7.996050358E0,8.616055184E0
2.067249409E0,-4.630500078E-1,3.150000095E0,7.977000237E0,8.588914290E0
2.069740817E0,-4.819500148E-1,3.169950247E0,7.996050358E0,8.614968468E0
2.072232240E0,-4.630500078E-1,3.169950247E0,7.977000237E0,8.596251081E0
2.074723933E0,-4.819500148E-1,3.189000130E0,7.996050358E0,8.621996229E0
2.077215626E0,-4.630500078E-1,3.189000130E0,7.977000237E0,8.603294131E0
2.079706240E0,-4.819500148E-1,3.226950169E0,7.996050358E0,8.636104708E0
2.082196857E0,-4.630500078E-1,3.226950169E0,7.977000237E0,8.617433230E0
2.084690517E0,-4.819500148E-1,3.265050173E0,7.996050358E0,8.650413272E0
2.087184170E0,-4.630500078E-1,3.265050173E0,7.977000237E0,8.631772745E0
2.089677707E0,-4.819500148E-1,3.304050207E0,7.996050358E0,8.665208879E0
2.092171246E0,-4.630500078E-1,3.304050207E0,7.957950592E0,8.629028955E0
2.094666209E0,-4.819500148E-1,3.342000246E0,7.977000237E0,8.662203775E0
2.097161170E0,-4.630500078E-1,3.342000246E0,7.957950592E0,8.643631099E0
2.099654980E0,-4.819500148E-1,3.379950047E0,7.977000237E0,8.676915979E0
2.102148827E0,-4.630500078E-1,3.379950047E0,7.957950592E0,8.658374862E0
2.104644059E0,-4.819500148E-1,3.418950081E0,7.977000237E0,8.692182019E0
2.107139288E0,-4.819500148E-1,3.399000168E0,7.957950592E0,8.666859615E0
2.109632980E0,-5.400000215E-1,3.418950081E0,7.977000237E0,8.695593853E0
2.112126673E0,-5.400000215E-1,3.399000168E0,7.977000237E0,8.687769273E0
2.114619828E0,-5.779500008E-1,3.418950081E0,8.016000748E0,8.733814393E0
2.117113021E0,-5.779500008E-1,3.399000168E0,8.016000748E0,8.726024085E0
2.119608907E0,-6.160500050E-1,3.418950081E0,8.053950310E0,8.771251499E0
2.122104790E0,-6.160500050E-1,3.399000168E0,8.053950310E0,8.763494471E0
2.124597710E0,-6.550500393E-1,3.418950081E0,8.072999954E0,8.791566326E0
2.127090635E0,-6.349500418E-1,3.399000168E0,8.053950310E0,8.764843369E0
2.129582505E0,-6.739500165E-1,3.418950081E0,8.072999954E0,8.792994742E0
2.132074352E0,-6.550500393E-1,3.399000168E0,8.053950310E0,8.766322392E0
2.134567429E0,-6.739500165E-1,3.418950081E0,8.072999954E0,8.792994742E0
2.137060506E0,-6.550500393E-1,3.399000168E0,8.053950310E0,8.766322392E0
2.139554621E0,-6.739500165E-1,3.418950081E0,8.072999954E0,8.792994742E0
2.142048736E0,-6.550500393E-1,3.399000168E0,8.053950310E0,8.766322392E0
2.144541043E0,-6.550500393E-1,3.418950081E0,8.072999954E0,8.791566326E0
2.147033352E0,-6.349500418E-1,3.399000168E0,8.072999954E0,8.782351163E0
2.149526468E0,-6.349500418E-1,3.418950081E0,8.092050552E0,8.807591234E0
2.152019583E0,-6.160500050E-1,3.399000168E0,8.072999954E0,8.781004954E0
2.154513121E0,-6.349500418E-1,3.418950081E0,8.092050552E0,8.807591234E0
2.157006660E0,-5.970000029E-1,3.399000168E0,8.072999954E0,8.779689027E0
2.159500322E0,-6.160500050E-1,3.418950081E0,8.092050552E0,8.806248884E0
2.161994015E0,-5.779500008E-1,3.399000168E0,8.072999954E0,8.778414242E0
2.164487245E0,-5.970000029E-1,3.418950081E0,8.092050552E0,8.804936729E0
2.166980476E0,-5.590500236E-1,3.399000168E0,8.072999954E0,8.777190173E0
2.169474747E0,-5.779500008E-1,3.399000168E0,8.092050552E0,8.795937158E0
2.171969016E0,-5.400000215E-1,3.379950047E0,8.072999954E0,8.768636758E0
2.174463461E0,-5.590500236E-1,3.379950047E0,8.092050552E0,8.787370562E0
2.176957924E0,-5.209500194E-1,3.342000246E0,8.072999954E0,8.752924244E0
2.179451307E0,-5.400000215E-1,3.342000246E0,8.092050552E0,8.771650233E0
2.181944692E0,-5.209500194E-1,3.304050207E0,8.092050552E0,8.756107516E0
2.184436846E0,-5.400000215E-1,3.322950125E0,8.131050110E0,8.800430299E0
2.186929001E0,-5.209500194E-1,3.304050207E0,8.131050110E0,8.792161997E0
2.189421329E0,-5.590500236E-1,3.322950125E0,8.169000626E0,8.836690878E0
2.191913674E0,-5.590500236E-1,3.304050207E0,8.169000626E0,8.829601119E0
2.194408290E0,-5.970000029E-1,3.322950125E0,8.226000786E0,8.891878062E0
2.196902905E0,-6.160500050E-1,3.285000086E0,8.245050430E0,8.896718483E0
2.199396083E0,-6.550500393E-1,3.304050207E0,8.284049988E0,8.942668647E0
2.201889276E0,-6.550500393E-1,3.285000086E0,8.302950859E0,8.953173129E0
2.204381738E0,-6.739500165E-1,3.285000086E0,8.359950066E0,9.007452431E0
2.206874199E0,-6.739500165E-1,3.246000051E0,8.380050659E0,9.011990569E0
2.209368547E0,-6.930000186E-1,3.226950169E0,8.437050819E0,9.059651370E0
2.211862892E0,-6.930000186E-1,3.189000130E0,8.455950737E0,9.063833280E0
2.214357040E0,-7.120500207E-1,3.189000130E0,8.513999939E0,9.119480907E0
2.216851195E0,-6.930000186E-1,3.150000095E0,8.533050537E0,9.122264033E0
2.219344117E0,-7.120500207E-1,3.150000095E0,8.590050697E0,9.177063082E0
2.221837040E0,-6.930000186E-1,3.112050056E0,8.590050697E0,9.162645664E0
2.224330387E0,-7.120500207E-1,3.112050056E0,8.629050255E0,9.200672752E0
2.226823732E0,-6.930000186E-1,3.093000174E0,8.629050255E0,9.192791056E0
2.229318362E0,-7.120500207E-1,3.112050056E0,8.667000771E0,9.236274852E0
2.231812977E0,-6.930000186E-1,3.093000174E0,8.667000771E0,9.228423563E0
2.234306822E0,-7.120500207E-1,3.112050056E0,8.704950333E0,9.271894687E0
2.236800669E0,-6.930000186E-1,3.093000174E0,8.704950333E0,9.264073585E0
2.239296402E0,-7.120500207E-1,3.112050056E0,8.743050575E0,9.307674476E0
2.241792131E0,-6.930000186E-1,3.093000174E0,8.743050575E0,9.299883465E0
2.244284403E0,-7.120500207E-1,3.112050056E0,8.782050133E0,9.344317809E0
2.246776674E0,-6.930000186E-1,3.093000174E0,8.782050133E0,9.336557376E0
2.249267944E0,-7.120500207E-1,3.112050056E0,8.820000648E0,9.379993722E0
2.251759213E0,-6.930000186E-1,3.093000174E0,8.820000648E0,9.372262829E0
2.254253522E0,-7.120500207E-1,3.112050056E0,8.857950211E0,9.415686524E0
2.256747829E0,-6.930000186E-1,3.093000174E0,8.839050293E0,9.390192180E0
2.259241622E0,-7.120500207E-1,3.112050056E0,8.878050804E0,9.434598925E0
2.261735431E0,-6.930000186E-1,3.093000174E0,8.857950211E0,9.407984961E0
2.264228854E0,-7.120500207E-1,3.112050056E0,8.878050804E0,9.434598925E0
2.266722277E0,-6.930000186E-1,3.093000174E0,8.857950211E0,9.407984961E0
2.269215472E0,-7.120500207E-1,3.112050056E0,8.878050804E0,9.434598925E0
2.271708665E0,-6.930000186E-1,3.093000174E0,8.857950211E0,9.407984961E0
2.274201434E0,-7.120500207E-1,3.112050056E0,8.878050804E0,9.434598925E0
2.276694203E0,-6.930000186E-1,3.093000174E0,8.857950211E0,9.407984961E0
2.279187281E0,-7.120500207E-1,3.112050056E0,8.878050804E0,9.434598925E0
2.281680358E0,-6.930000186E-1,3.093000174E0,8.857950211E0,9.407984961E0
2.284171125E0,-7.120500207E-1,3.112050056E0,8.878050804E0,9.434598925E0
2.286661896E0,-6.930000186E-1,3.093000174E0,8.857950211E0,9.407984961E0
2.289153166E0,-7.120500207E-1,3.112050056E0,8.878050804E0,9.434598925E0
2.291644435E0,-6.930000186E-1,3.093000174E0,8.857950211E0,9.407984961E0
2.294135048E0,-7.120500207E-1,3.112050056E0,8.878050804E0,9.434598925E0
2.296625665E0,-6.930000186E-1,3.093000174E0,8.857950211E0,9.407984961E0
2.299119194E0,-7.120500207E-1,3.112050056E0,8.878050804E0,9.434598925E0
2.301612693E0,-6.930000186E-1,3.073950052E0,8.857950211E0,9.401739195E0
2.304105037E0,-7.120500207E-1,3.073950052E0,8.878050804E0,9.422100097E0
2.306597386E0,-6.930000186E-1,3.055050135E0,8.857950211E0,9.395576740E0
2.309089693E0,-7.120500207E-1,3.073950052E0,8.878050804E0,9.422100097E0
2.311582000E0,-7.120500207E-1,3.055050135E0,8.857950211E0,9.397001037E0
2.314077066E0,-7.309500575E-1,3.073950052E0,8.878050804E0,9.423547262E0
2.316572103E0,-7.309500575E-1,3.055050135E0,8.857950211E0,9.398452066E0
2.319065524E0,-7.500000596E-1,3.073950052E0,8.878050804E0,9.425044037E0
2.321558949E0,-7.500000596E-1,3.055050135E0,8.857950211E0,9.399952838E0
2.324052487E0,-8.080500364E-1,3.073950052E0,8.878050804E0,9.429840925E0
2.326546026E0,-7.890000343E-1,3.055050135E0,8.839050293E0,9.385342959E0
2.329039573E0,-8.080500364E-1,3.073950052E0,8.839050293E0,9.393131739E0
2.331533112E0,-7.890000343E-1,3.055050135E0,8.820000648E0,9.367404327E0
2.334028151E0,-8.080500364E-1,3.073950052E0,8.820000648E0,9.375208010E0
2.336523190E0,-8.080500364E-1,3.055050135E0,8.800950050E0,9.351096084E0
2.339017227E0,-8.460000157E-1,3.073950052E0,8.820000648E0,9.378555133E0
2.341511266E0,-8.460000157E-1,3.055050135E0,8.800950050E0,9.354451835E0
2.344004170E0,-8.650500178E-1,3.073950052E0,8.820000648E0,9.380292740E0
2.346497055E0,-8.460000157E-1,3.055050135E0,8.800950050E0,9.354451835E0
2.348992017E0,-8.839500546E-1,3.073950052E0,8.820000648E0,9.382054576E0
2.351486978E0,-8.839500546E-1,3.055050135E0,8.782050133E0,9.340187555E0
2.353979451E0,-9.229500294E-1,3.073950052E0,8.782050133E0,9.350155625E0
2.356471914E0,-9.229500294E-1,3.055050135E0,8.743050575E0,9.307314406E0
2.358964530E0,-9.610500336E-1,3.073950052E0,8.723999977E0,9.299514057E0
2.361457145E0,-9.610500336E-1,3.055050135E0,8.647950172E0,9.221929878E0
2.363952493E0,-9.799500704E-1,3.073950052E0,8.110950470E0,8.729088646E0
2.366447838E0,-9.610500336E-1,3.055050135E0,8.092050552E0,8.702771434E0
2.368942747E0,-9.799500704E-1,3.073950052E0,8.092050552E0,8.711529900E0
2.371437670E0,-9.610500336E-1,3.055050135E0,8.035050392E0,8.649796720E0
2.373931709E0,-9.799500704E-1,3.073950052E0,8.016000748E0,8.640933922E0
2.376425748E0,-9.799500704E-1,3.055050135E0,7.957950592E0,8.580361944E0
2.378918324E0,-1.038000107E0,3.073950052E0,7.939050198E0,8.576428813E0
2.381410901E0,-1.057050109E0,3.055050135E0,7.882050514E0,8.519237440E0
2.383904811E0,-1.114050031E0,3.073950052E0,7.861950397E0,8.514724919E0
2.386398694E0,-1.132950068E0,3.055050135E0,7.804950237E0,8.457786672E0
2.388891885E0,-1.171950102E0,3.073950052E0,7.786050320E0,8.452527169E0
2.391385078E0,-1.191000104E0,3.055050135E0,7.747050285E0,8.412407545E0
2.393879387E0,-1.228950024E0,3.073950052E0,7.728000164E0,8.407227463E0
2.396373694E0,-1.228950024E0,3.055050135E0,7.671000481E0,8.347927758E0
2.398869146E0,-1.267950058E0,3.073950052E0,7.651950359E0,8.343213444E0
2.401364569E0,-1.267950058E0,3.055050135E0,7.594050407E0,8.283153401E0
2.403857952E0,-1.287000060E0,3.073950052E0,7.575000286E0,8.275636979E0
2.406351339E0,-1.306050062E0,3.055050135E0,7.518000126E0,8.219453995E0
2.408844998E0,-1.363050103E0,3.073950052E0,7.498050213E0,8.217531959E0
2.411338651E0,-1.363050103E0,3.055050135E0,7.441050529E0,8.158460020E0
2.413832997E0,-1.420950055E0,3.073950052E0,7.422000408E0,8.158085440E0
2.416327344E0,-1.440000057E0,3.055050135E0,7.363950253E0,8.101524228E0
2.418821766E0,-1.477950096E0,3.073950052E0,7.345050335E0,8.098349822E0
2.421316189E0,-1.497000098E0,3.055050135E0,7.288050175E0,8.043010380E0
2.423810640E0,-1.536000013E0,3.073950052E0,7.269000530E0,8.040325471E0
2.426305103E0,-1.555050015E0,3.055050135E0,7.210950375E0,7.984316951E0
2.428798332E0,-1.630950093E0,3.073950052E0,7.192050457E0,7.989665632E0
2.431291565E0,-1.651050091E0,3.055050135E0,7.135050297E0,7.935253018E0
2.433785258E0,-1.708050132E0,3.073950052E0,7.096050262E0,7.919629632E0
2.436278949E0,-1.708050132E0,3.055050135E0,7.020000458E0,7.844180837E0
2.438773136E0,-1.765950084E0,3.073950052E0,6.981000423E0,7.829566753E0
2.441267329E0,-1.765950084E0,3.055050135E0,6.406950474E0,7.314432678E0
2.443760713E0,-1.804050088E0,3.073950052E0,6.426000118E0,7.348281647E0
2.446254098E0,-1.804050088E0,3.073950052E0,6.406950474E0,7.331628742E0
2.448746713E0,-1.842000127E0,3.093000174E0,6.406950474E0,7.349056328E0
2.451239328E0,-1.822950125E0,3.073950052E0,6.367950439E0,7.302267379E0
2.453732527E0,-1.861050129E0,3.093000174E0,6.349050522E0,7.303464944E0
2.456225718E0,-1.842000127E0,3.073950052E0,6.292050362E0,7.240996557E0
2.458718795E0,-1.879950047E0,3.093000174E0,6.273000240E0,7.242333482E0
2.461211872E0,-1.861050129E0,3.055050135E0,6.196050167E0,7.154570328E0
2.463704796E0,-1.900050044E0,3.055050135E0,5.640000343E0,6.689777677E0
2.466197719E0,-1.900050044E0,2.997000217E0,5.620950222E0,6.647351493E0
2.468692815E0,-1.918950081E0,2.977950096E0,5.620950222E0,6.644218358E0
2.471187930E0,-1.918950081E0,2.920950174E0,5.583000183E0,6.586669141E0
2.473681005E0,-1.938000083E0,2.901000023E0,5.563950062E0,6.567281458E0
2.476174084E0,-1.918950081E0,2.844000101E0,5.506050110E0,6.487472065E0
2.478667737E0,-1.938000083E0,2.824950218E0,5.487000465E0,6.468644538E0
2.481161390E0,-1.918950081E0,2.767050028E0,5.430000305E0,6.389353534E0
2.483654005E0,-1.938000083E0,2.728950024E0,5.391000271E0,6.345541464E0
2.486146622E0,-1.918950081E0,2.652000189E0,5.314950466E0,6.242128873E0
2.488638622E0,-1.938000083E0,2.614050150E0,5.277000427E0,6.199664186E0
2.491130621E0,-1.918950081E0,2.536950111E0,4.606050014E0,5.597694348E0
2.493624815E0,-1.938000083E0,2.499000072E0,4.624950409E0,5.602768242E0
2.496119006E0,-1.918950081E0,2.422950029E0,4.606050014E0,5.546958896E0
2.498613569E0,-1.938000083E0,2.383949995E0,4.624950409E0,5.552407423E0
2.501108146E0,-1.918950081E0,2.308050156E0,4.606050014E0,5.497741506E0
2.503600145E0,-1.938000083E0,2.269050121E0,4.624950409E0,5.504052967E0
2.506092146E0,-1.918950081E0,2.193000078E0,4.624950409E0,5.466423423E0
2.508584339E0,-1.938000083E0,2.154000044E0,4.663950443E0,5.490718919E0
2.511076530E0,-1.918950081E0,2.077950001E0,4.683000088E0,5.470898961E0
2.513569405E0,-1.938000083E0,2.059050083E0,4.759050369E0,5.535710612E0
2.516062290E0,-1.938000083E0,2.001000166E0,5.391000271E0,6.068173523E0
2.518555212E0,-1.995000124E0,1.963050127E0,5.430000305E0,6.108886528E0
2.521048137E0,-2.014950037E0,1.885950089E0,5.449050426E0,6.108107885E0
2.523542021E0,-2.071950197E0,1.312050104E0,6.024000168E0,6.504078037E0
2.526035906E0,-2.647050142E0,1.291950107E0,6.024000168E0,6.705563925E0
2.528529121E0,-2.685000181E0,1.291950107E0,6.081000328E0,6.771774217E0
2.531022352E0,-2.704050064E0,1.234950066E0,6.118950367E0,6.802833381E0
2.533515853E0,-2.781000137E0,1.197000027E0,6.732000351E0,7.381503882E0
2.536009352E0,-2.818950176E0,5.839500427E-1,6.732000351E0,7.321701064E0
2.538502929E0,-2.875950098E0,6.030000448E-1,6.771000385E0,7.381134346E0
2.540996506E0,-3.469950199E0,5.650500059E-1,6.771000385E0,7.629304170E0
2.543489399E0,-3.489000082E0,5.449500084E-1,6.828000546E0,7.687111521E0
2.545982322E0,-3.489000082E0,4.879500270E-1,6.847050190E0,7.700215134E0
2.548475669E0,-3.547050238E0,4.690500200E-1,6.924000263E0,7.793802214E0
2.550969016E0,-3.547050238E0,4.309500158E-1,7.498050213E0,8.305903942E0
2.553461668E0,-3.604050159E0,4.110000134E-1,7.537050247E0,8.364521803E0
2.555954323E0,-3.604050159E0,3.730500042E-1,7.555950165E0,8.379780829E0
2.558447068E0,-3.624000072E0,3.730500042E-1,7.633050442E0,8.457895830E0
2.560939799E0,-3.604050159E0,3.349500299E-1,8.341050148E0,9.092551163E0
2.563432452E0,-3.624000072E0,3.349500299E-1,8.380050659E0,9.136236484E0
2.565925107E0,-3.604050159E0,2.770500183E-1,8.418000221E0,9.161258756E0
2.568419261E0,-3.624000072E0,2.770500183E-1,9.012000084E0,9.717318496E0
2.570913414E0,-3.585000277E0,2.200500071E-1,9.012000084E0,9.701381062E0
2.573407971E0,-3.565950155E0,2.010000050E-1,9.069000244E0,9.746956804E0
2.575902548E0,-3.528000116E0,1.429500133E-1,9.682050705E0,1.030579087E1
2.578397971E0,-3.528000116E0,1.240500063E-1,9.720000267E0,1.034120778E1
2.580893394E0,-3.489000082E0,6.705000252E-2,9.739950180E0,1.034621896E1
2.583387817E0,-3.489000082E0,4.695000127E-2,1.035195065E1,1.092420286E1
2.585882242E0,-3.432000160E0,-9.000000544E-3,1.035195065E1,1.090603449E1
2.588376266E0,-3.432000160E0,-2.805000171E-2,1.042905045E1,1.097927616E1
2.590870305E0,-3.375000238E0,-8.595000207E-2,1.113795090E1,1.163838323E1
2.593365959E0,-3.355050087E0,-1.050000042E-1,1.117605019E1,1.166925378E1
2.595861612E0,-3.298050165E0,-1.620000005E-1,1.119495010E1,1.167177308E1
2.598354225E0,-3.279000044E0,-1.810500026E-1,1.182705021E1,1.227451576E1
2.600846842E0,-3.240000248E0,-2.389500141E-1,1.182705021E1,1.226514637E1
2.603341017E0,-3.220950127E0,-2.580000162E-1,1.188495064E1,1.231637672E1
2.605835170E0,-3.183000088E0,-3.160500228E-1,1.242105103E1,1.282629665E1
2.608327360E0,-3.183000088E0,-3.540000021E-1,1.245900059E1,1.286403907E1
2.610819553E0,-3.145050049E0,-4.300500154E-1,1.247895050E1,1.287635385E1
2.613313862E0,-3.145050049E0,-4.690500200E-1,1.255500031E1,1.295142388E1
2.615808169E0,-3.106050253E0,-5.449500084E-1,1.320600033E1,1.357729588E1
2.618301707E0,-3.106050253E0,-5.839500427E-1,1.322595024E1,1.359831996E1
2.620795246E0,-3.067950249E0,-6.600000262E-1,1.322595024E1,1.359314822E1
2.623289862E0,-3.087000132E0,-6.990000606E-1,1.328295040E1,1.365485050E1
2.625784477E0,-3.049050093E0,-7.560000420E-1,1.330200100E1,1.366789937E1
2.628278014E0,-3.030000210E0,-7.750500441E-1,1.337895107E1,1.373964831E1
2.630771553E0,-2.971950054E0,-8.329500556E-1,1.339800072E1,1.374891691E1
2.633266593E0,-2.953050137E0,-8.520000577E-1,1.345500088E1,1.380157447E1
2.635761630E0,-2.896050215E0,-8.899500370E-1,1.347495079E1,1.381135101E1
2.638254860E0,-2.896050215E0,-8.899500370E-1,1.355100060E1,1.388555851E1
2.640748093E0,-2.838000059E0,-9.480000734E-1,1.359000111E1,1.391549778E1
2.643242901E0,-2.838000059E0,-9.670500755E-1,1.366605091E1,1.399108208E1
2.645737708E0,-2.781000137E0,-1.024049997E0,1.370400047E1,1.402077990E1
2.648231864E0,-2.742000103E0,-1.042950034E0,1.376205063E1,1.407125960E1
2.650726019E0,-2.685000181E0,-1.101000071E0,1.380000019E1,1.410182373E1
2.653219981E0,-2.665950060E0,-1.120050073E0,1.387695026E1,1.417503265E1
2.655713942E0,-2.608050108E0,-1.177050114E0,1.389600086E1,1.418753722E1
2.658206712E0,-2.608050108E0,-1.197000027E0,1.397295094E1,1.426457473E1
2.660699481E0,-2.551050186E0,-1.254000068E0,1.399200058E1,1.427783084E1
2.663193209E0,-2.512950182E0,-1.254000068E0,1.404900074E1,1.432696257E1
2.665686938E0,-2.455050230E0,-1.291950107E0,1.406805038E1,1.433898352E1
2.668179860E0,-2.436000109E0,-1.291950107E0,1.414500046E1,1.441125496E1
2.670672785E0,-2.377950191E0,-1.330950022E0,1.416405106E1,1.442381425E1
2.673165823E0,-2.359050035E0,-1.330950022E0,1.422195053E1,1.447758343E1
2.675658862E0,-2.282999992E0,-1.369050026E0,1.424100113E1,1.448766717E1
2.678152563E0,-1.726950049E0,-1.369050026E0,1.429800034E1,1.446684029E1
2.680646256E0,-1.708050132E0,-1.407000065E0,1.431705093E1,1.448706429E1
2.683140139E0,-1.726950049E0,-1.407000065E0,1.437495041E1,1.454651865E1
2.685634024E0,-1.708050132E0,-1.465050101E0,1.437495041E1,1.455001740E1
2.688125522E0,-1.726950049E0,-1.483950019E0,1.441305065E1,1.459179541E1
2.690617025E0,-1.708050132E0,-1.540950060E0,1.441305065E1,1.459547846E1
2.693109632E0,-1.726950049E0,-1.561050057E0,1.443195057E1,1.461849619E1
2.695602247E0,-1.708050132E0,-1.599000096E0,1.441305065E1,1.460172132E1
2.698093822E0,-1.726950049E0,-1.599000096E0,1.443195057E1,1.462259741E1
2.700585401E0,-1.708050132E0,-1.618050098E0,1.441305065E1,1.460381972E1
2.703078440E0,-1.726950049E0,-1.599000096E0,1.443195057E1,1.462259741E1
2.705571477E0,-1.708050132E0,-1.618050098E0,1.439400101E1,1.458501924E1
2.708063207E0,-1.726950049E0,-1.599000096E0,1.439400101E1,1.458514391E1
2.710554938E0,-1.708050132E0,-1.618050098E0,1.433700085E1,1.452876852E1
2.713048440E0,-1.726950049E0,-1.599000096E0,1.431705093E1,1.450920760E1
2.715541939E0,-1.708050132E0,-1.618050098E0,1.426005077E1,1.445283949E1
2.718033975E0,-1.726950049E0,-1.599000096E0,1.424100113E1,1.443417025E1
2.720526016E0,-1.708050132E0,-1.618050098E0,1.416405106E1,1.435812884E1
2.723018593E0,-1.726950049E0,-1.599000096E0,1.357005024E1,1.377263306E1
2.725511170E0,-1.708050132E0,-1.618050098E0,1.353195095E1,1.373496334E1
2.728004092E0,-1.726950049E0,-1.599000096E0,1.353195095E1,1.373509572E1
2.730497015E0,-1.708050132E0,-1.618050098E0,1.349400043E1,1.369757530E1
2.732991015E0,-1.726950049E0,-1.579950094E0,1.347495079E1,1.367672832E1
2.735485016E0,-1.708050132E0,-1.579950094E0,1.290000057E1,1.310815366E1
2.737978408E0,-1.726950049E0,-1.540950060E0,1.291905022E1,1.312473779E1
2.740471793E0,-1.708050132E0,-1.561050057E0,1.288095093E1,1.308713908E1
2.742963331E0,-1.726950049E0,-1.540950060E0,1.286205101E1,1.306863573E1
2.745454870E0,-1.708050132E0,-1.540950060E0,1.280400085E1,1.300901227E1
2.747948564E0,-1.689000130E0,-1.503000021E0,1.278495026E1,1.298332329E1
2.750442255E0,-1.651050091E0,-1.503000021E0,1.270800018E1,1.290264485E1
2.752932556E0,-1.651050091E0,-1.465050101E0,1.268895054E1,1.287951101E1
2.755422865E0,-1.612050056E0,-1.465050101E0,1.263195038E1,1.281839489E1
2.757917638E0,-1.612050056E0,-1.426050067E0,1.259400082E1,1.277658721E1
2.760412405E0,-1.555050015E0,-1.407000065E0,1.251705074E1,1.269150854E1
2.762906441E0,-1.516950130E0,-1.350000024E0,1.247895050E1,1.264309469E1
2.765400482E0,-1.440000057E0,-1.330950022E0,1.188495064E1,1.204562492E1
2.767894020E0,-1.420950055E0,-1.273050070E0,1.190400028E1,1.205591051E1
2.770387559E0,-1.344000101E0,-1.254000068E0,1.186605072E1,1.200758144E1
2.772880482E0,-8.080500364E-1,-1.197000027E0,1.184595013E1,1.193366198E1
2.775373405E0,-7.890000343E-1,-1.177050114E0,1.177005100E1,1.185504402E1
2.777865712E0,-8.080500364E-1,-1.138950109E0,1.113795090E1,1.122515489E1
2.780358019E0,-7.699500322E-1,-1.138950109E0,1.109895039E1,1.118377083E1
2.782849366E0,-7.699500322E-1,-1.101000071E0,1.106100082E1,1.114229615E1
2.785340713E0,-7.309500575E-1,-1.101000071E0,1.044795036E1,1.053119917E1
2.787833328E0,-7.309500575E-1,-1.063050032E0,1.044795036E1,1.052729928E1
2.790325943E0,-6.930000186E-1,-1.063050032E0,1.039095020E1,1.046815029E1
2.792817827E0,-6.930000186E-1,-1.024049997E0,1.035195065E1,1.042553642E1
2.795309712E0,-6.550500393E-1,-1.024049997E0,9.663000107E0,9.739165263E0
2.797799851E0,-6.550500393E-1,-9.670500755E-1,9.663000107E0,9.733336913E0
2.800290006E0,-6.349500418E-1,-9.480000734E-1,9.625050545E0,9.692443638E0
2.802782161E0,-6.349500418E-1,-8.899500370E-1,9.604950905E0,9.666967183E0
2.805274314E0,-5.970000029E-1,-8.710500598E-1,9.529050827E0,9.587384778E0
2.807768121E0,-6.160500050E-1,-8.140500188E-1,9.490950584E0,9.545697357E0
2.810261928E0,-5.779500008E-1,-7.939500213E-1,8.820000648E0,8.874502481E0
2.812756274E0,-5.970000029E-1,-7.180500627E-1,8.839050293E0,8.888240263E0
2.815250621E0,-5.590500236E-1,-6.990000606E-1,8.782050133E0,8.827544537E0
2.817742927E0,-5.779500008E-1,-6.409500241E-1,8.743050575E0,8.785543609E0
2.820235236E0,-5.400000215E-1,-6.220500469E-1,8.035050392E0,8.077164174E0
2.822728007E0,-5.590500236E-1,-5.449500084E-1,8.035050392E0,8.072889337E0
2.825220776E0,-5.400000215E-1,-5.070000291E-1,7.977000237E0,8.011315861E0
2.827714583E0,-5.590500236E-1,-4.300500154E-1,7.363950253E0,7.397651199E0
2.830208390E0,-5.209500194E-1,-4.110000134E-1,7.326000214E0,7.355990012E0
2.832701928E0,-5.400000215E-1,-3.540000021E-1,7.306950569E0,7.335423822E0
2.835195467E0,-5.010000467E-1,-3.160500228E-1,6.732000351E0,6.758011349E0
2.837687313E0,-5.209500194E-1,2.770500183E-1,6.732000351E0,6.757808399E0
2.840179160E0,-5.010000467E-1,2.580000162E-1,6.694050312E0,6.717728384E0
2.842671194E0,-5.209500194E-1,2.959500253E-1,6.675000191E0,6.701835785E0
2.845163231E0,-4.819500148E-1,2.959500253E-1,6.043050289E0,6.069457886E0
2.847658771E0,-4.630500078E-1,3.349500299E-1,6.043050289E0,6.070013479E0
2.850154308E0,-4.440000355E-1,3.540000021E-1,5.985000134E0,6.011878128E0
2.852646911E0,-4.630500078E-1,4.309500158E-1,5.965950489E0,5.999391508E0
2.855139530E0,-4.440000355E-1,4.690500200E-1,5.391000271E0,5.429551351E0
2.857633646E0,-4.440000355E-1,5.449500084E-1,5.391000271E0,5.436634112E0
2.860127761E0,-4.249500334E-1,1.138950109E0,5.334000111E0,5.470772072E0
2.862622413E0,-4.440000355E-1,1.158000112E0,5.314950466E0,5.457728350E0
2.865117068E0,-4.249500334E-1,1.138950109E0,5.238000393E0,5.377214706E0
2.867609937E0,-4.440000355E-1,1.177950025E0,5.200050354E0,5.350254758E0
2.870102824E0,-4.249500334E-1,1.177950025E0,4.530000210E0,4.699899009E0
2.872595785E0,-4.440000355E-1,1.216050029E0,4.549050331E0,4.729669399E0
2.875088746E0,-4.249500334E-1,1.234950066E0,4.510050297E0,4.695342147E0
2.877581823E0,-4.440000355E-1,1.291950107E0,4.491000175E0,4.694182963E0
2.880074900E0,-4.249500334E-1,1.312050104E0,4.434000015E0,4.643534660E0
2.882565981E0,-4.440000355E-1,1.369050026E0,4.394999981E0,4.624657699E0
2.885057060E0,-4.249500334E-1,1.407000065E0,4.318950176E0,4.562188328E0
2.887549637E0,-4.440000355E-1,1.483950019E0,3.783000231E0,4.087827594E0
2.890042212E0,-4.249500334E-1,1.522050023E0,3.763050079E0,4.081392496E0
2.892534366E0,-4.440000355E-1,1.599000096E0,3.783000231E0,4.130983913E0
2.895026521E0,-4.249500334E-1,1.636950135E0,3.744000196E0,4.108250935E0
2.897520252E0,-4.440000355E-1,1.695000052E0,3.744000196E0,4.133726972E0
2.900013983E0,-4.249500334E-1,1.714050055E0,3.706050158E0,4.105284143E0
2.902506596E0,-4.440000355E-1,1.789950132E0,3.687000275E0,4.122502703E0
2.904999213E0,-4.249500334E-1,1.828950047E0,3.648000240E0,4.102870527E0
2.907492252E0,-4.440000355E-1,1.905000091E0,3.628950119E0,4.122552649E0
2.909985289E0,-4.249500334E-1,1.944000125E0,3.571950197E0,4.088832013E0
2.912478355E0,-4.440000355E-1,2.001000166E0,3.534000158E0,4.085375725E0
2.914971434E0,-4.249500334E-1,2.020050049E0,3.475950241E0,4.042698951E0
2.917465433E0,-4.440000355E-1,2.097000122E0,3.438000202E0,4.051467751E0
2.919959434E0,-4.249500334E-1,2.134950161E0,3.361050129E0,4.004404162E0
2.922452086E0,-4.249500334E-1,2.193000078E0,3.322950125E0,4.003976699E0
2.924944741E0,-4.060500264E-1,2.212050200E0,3.246000051E0,3.948994688E0
2.927437640E0,-4.060500264E-1,2.269050121E0,3.208050251E0,3.950322960E0
2.929930525E0,-3.859500289E-1,2.287950039E0,3.130950212E0,3.896988842E0
2.932423024E0,-3.859500289E-1,2.346000195E0,3.093000174E0,3.901195254E0
2.934915525E0,-3.670500219E-1,2.346000195E0,3.016050100E0,3.838619653E0
2.937408563E0,-3.670500219E-1,2.383949995E0,2.997000217E0,3.847070782E0
2.939901602E0,-3.480000198E-1,2.383949995E0,2.959050179E0,3.815796057E0
2.942395294E0,-3.670500219E-1,2.403000116E0,2.977950096E0,3.844128257E0
2.944888987E0,-3.480000198E-1,2.403000116E0,2.959050179E0,3.827726679E0
2.947383794E0,-3.670500219E-1,2.442000151E0,2.977950096E0,3.868627306E0
2.949878601E0,-3.670500219E-1,2.422950029E0,2.977950096E0,3.856630568E0
2.952371220E0,-3.859500289E-1,2.442000151E0,3.016050100E0,3.899856455E0
2.954863837E0,-3.859500289E-1,2.422950029E0,3.036000252E0,3.903452549E0
2.957357069E0,-4.440000355E-1,2.442000151E0,3.093000174E0,3.965747198E0
2.959850298E0,-4.630500078E-1,2.422950029E0,3.112050056E0,3.971140605E0
2.962343336E0,-5.209500194E-1,2.442000151E0,3.189000130E0,4.050243880E0
2.964836375E0,-5.590500236E-1,2.422950029E0,3.226950169E0,4.073871766E0
2.967328054E0,-6.349500418E-1,2.442000151E0,3.304050207E0,4.157315728E0
2.969819747E0,-1.210050106E0,2.422950029E0,3.342000246E0,4.301612924E0
2.972313440E0,-1.248000026E0,2.442000151E0,3.418950081E0,4.382931491E0
2.974807131E0,-1.248000026E0,2.422950029E0,3.993000269E0,4.834484673E0
2.977300400E0,-1.324950099E0,2.422950029E0,4.012050152E0,4.870598118E0
2.979793669E0,-1.344000101E0,2.383949995E0,3.993000269E0,4.840826892E0
2.982287160E0,-1.402050018E0,2.383949995E0,4.032000065E0,4.889374843E0
2.984780659E0,-1.440000057E0,2.346000195E0,4.051050186E0,4.897787734E0
2.987275313E0,-2.034000158E0,2.346000195E0,4.108050346E0,5.149461254E0
2.989769968E0,-2.014950037E0,2.308050156E0,4.146000385E0,5.155234075E0
2.992264274E0,-2.034000158E0,2.308050156E0,4.740000248E0,5.650827773E0
2.994758583E0,-2.014950037E0,2.269050121E0,4.720950127E0,5.612128135E0
2.997251038E0,-2.034000158E0,2.269050121E0,4.779000282E0,5.667855749E0
2.999743501E0,-2.034000158E0,2.230950117E0,4.816950321E0,5.684831173E0
3.002237194E0,-2.071950197E0,2.230950117E0,5.526000500E0,6.309262839E0
3.004730885E0,-2.071950197E0,2.193000078E0,5.526000500E0,6.295943812E0
3.007223769E0,-2.110050201E0,2.193000078E0,6.118950367E0,6.833967719E0
3.009716654E0,-2.128950119E0,2.154000044E0,6.139050484E0,6.845442691E0
3.012210078E0,-2.206050158E0,2.134950161E0,6.828000546E0,7.486405074E0
3.014703501E0,-2.224950075E0,2.077950001E0,6.847050190E0,7.493355413E0
3.017197154E0,-2.282999992E0,2.059050083E0,7.671000481E0,8.264140886E0
3.019690809E0,-2.320950031E0,1.981950045E0,7.690050602E0,8.273561101E0
3.022184231E0,-2.377950191E0,1.387950063E0,8.418000221E0,8.856849339E0
3.024677654E0,-2.398050070E0,1.350000024E0,8.437050819E0,8.874512422E0
3.027171597E0,-2.473950148E0,1.350000024E0,9.088050842E0,9.515019575E0
3.029665558E0,-2.473950148E0,1.291950107E0,9.106950760E0,9.525025803E0
3.032159866E0,-2.512950182E0,1.254000068E0,9.892950058E0,1.028386579E1
3.034654175E0,-2.493000031E0,5.839500427E-1,9.912000656E0,1.023737290E1
3.037149097E0,-2.512950182E0,6.030000448E-1,1.054395008E1,1.085603109E1
3.039644020E0,-2.493000031E0,5.650500059E-1,1.056300068E1,1.086790293E1
3.042136364E0,-2.493000031E0,5.449500084E-1,1.121400070E1,1.150068830E1
3.044628713E0,-2.455050230E0,4.879500270E-1,1.123395061E1,1.150943149E1
3.047121598E0,-2.473950148E0,4.690500200E-1,1.180800056E1,1.207349637E1
3.049614481E0,-2.416950226E0,4.110000134E-1,1.180800056E1,1.205982781E1
3.052106057E0,-2.398050070E0,3.730500042E-1,1.188495064E1,1.213020454E1
3.054597636E0,-2.340000153E0,3.160500228E-1,1.253595066E1,1.275639241E1
3.057089760E0,-2.320950031E0,2.959500253E-1,1.257405090E1,1.278988474E1
3.059581875E0,-2.263950109E0,2.389500141E-1,1.259400082E1,1.279810235E1
3.062073875E0,-1.726950049E0,2.200500071E-1,1.320600033E1,1.332025612E1
3.064565876E0,-1.708050132E0,1.620000005E-1,1.320600033E1,1.331698629E1
3.067059569E0,-1.726950049E0,1.429500133E-1,1.326405048E1,1.337676442E1
3.069553260E0,-1.708050132E0,8.595000207E-2,1.330200100E1,1.341148960E1
3.072046539E0,-1.689000130E0,6.705000252E-2,1.337895107E1,1.348530863E1
3.074539808E0,-1.651050091E0,9.000000544E-3,1.341705036E1,1.351825757E1
3.077032116E0,-1.651050091E0,-9.000000544E-3,1.399200058E1,1.408907831E1
3.079524425E0,-1.593000054E0,-4.695000127E-2,1.397295094E1,1.406354192E1
3.082016232E0,-1.593000054E0,-4.695000127E-2,1.399200058E1,1.408246902E1
3.084508039E0,-1.536000013E0,-8.595000207E-2,1.399200058E1,1.407631925E1
3.087000664E0,-1.555050015E0,-1.050000042E-1,1.402995110E1,1.411625777E1
3.089493279E0,-1.497000098E0,-1.429500133E-1,1.402995110E1,1.411031437E1
3.091986971E0,-1.477950096E0,-1.429500133E-1,1.406805038E1,1.414619429E1
3.094480664E0,-1.440000057E0,-2.010000050E-1,1.406805038E1,1.414298564E1
3.096973778E0,-1.420950055E0,-2.200500071E-1,1.410705090E1,1.418014126E1
3.099466895E0,-1.381950021E0,-2.959500253E-1,1.410705090E1,1.417766755E1
3.101958375E0,-1.381950021E0,-8.710500598E-1,1.412595081E1,1.422009144E1
3.104449876E0,-1.363050103E0,-8.899500370E-1,1.410705090E1,1.420066201E1
3.106943108E0,-1.363050103E0,-8.899500370E-1,1.412595081E1,1.421943751E1
3.109436337E0,-1.344000101E0,-9.280500412E-1,1.408800030E1,1.418236107E1
3.111928836E0,-1.344000101E0,-9.280500412E-1,1.406805038E1,1.416254408E1
3.114421337E0,-1.306050062E0,-9.670500755E-1,1.401105022E1,1.410498072E1
3.116912515E0,-1.306050062E0,-9.480000734E-1,1.397295094E1,1.406583907E1
3.119403708E0,-1.267950058E0,-9.670500755E-1,1.391505051E1,1.400612415E1
3.121896208E0,-1.267950058E0,-9.480000734E-1,1.387695026E1,1.396696639E1
3.124388707E0,-1.210050106E0,-9.670500755E-1,1.381905079E1,1.390559498E1
3.126881168E0,-1.191000104E0,-9.480000734E-1,1.380000019E1,1.388370234E1
3.129373631E0,-1.114050031E0,-9.670500755E-1,1.376205063E1,1.384089343E1
3.131865736E0,-1.095000029E0,-9.480000734E-1,1.376205063E1,1.383805502E1
3.134357851E0,-1.018950105E0,-9.670500755E-1,1.372395039E1,1.379566089E1
3.136851122E0,-1.018950105E0,-9.670500755E-1,1.374300098E1,1.381461260E1
3.139344391E0,-9.610500336E-1,-1.004999995E0,1.372395039E1,1.379421822E1
3.141835312E0,-9.610500336E-1,-1.024049997E0,1.374300098E1,1.381457099E1
3.144326237E0,-9.229500294E-1,-1.081950068E0,1.372395039E1,1.379743697E1
3.146818963E0,-9.420000315E-1,-1.101000071E0,1.374300098E1,1.381917658E1
3.149311692E0,-9.040500522E-1,-1.177050114E0,1.372395039E1,1.380396927E1
3.151805731E0,-8.839500546E-1,-1.216050029E0,1.374300098E1,1.382498540E1
3.154299770E0,-8.460000157E-1,-1.291950107E0,1.370400047E1,1.379073892E1
3.156792845E0,-8.269500136E-1,-1.330950022E0,1.368495083E1,1.377436581E1
3.159285924E0,-7.699500322E-1,-1.905000091E0,1.362795067E1,1.378197692E1
3.161778030E0,-7.699500322E-1,-1.885950089E0,1.309200096E1,1.324953282E1
3.164270145E0,-7.120500207E-1,-1.905000091E0,1.307205105E1,1.322930683E1
3.166762453E0,-6.739500165E-1,-1.885950089E0,1.307205105E1,1.322458071E1
3.169254760E0,-6.160500050E-1,-1.905000091E0,1.299600029E1,1.314931810E1
3.171748337E0,-5.970000029E-1,-1.885950089E0,1.295700073E1,1.310713869E1
3.174241914E0,-5.400000215E-1,-1.905000091E0,1.228695011E1,1.244547180E1
3.176734183E0,-5.209500194E-1,-1.885950089E0,1.230600071E1,1.246057182E1
3.179226454E0,-4.630500078E-1,-1.905000091E0,1.226805019E1,1.242370702E1
3.181718954E0,-4.630500078E-1,-1.885950089E0,1.224900055E1,1.240198522E1
3.184211453E0,-4.060500264E-1,-1.905000091E0,1.217205048E1,1.232691019E1
3.186704183E0,-4.060500264E-1,-1.885950089E0,1.159695053E1,1.175631515E1
3.189196914E0,-3.480000198E-1,-1.905000091E0,1.157805061E1,1.173888348E1
3.191690949E0,-3.480000198E-1,-1.885950089E0,1.155900097E1,1.171701392E1
3.194184988E0,-3.100500107E-1,-1.905000091E0,1.148295021E1,1.164402430E1
3.196677717E0,-2.910000086E-1,-1.885950089E0,1.090800095E1,1.107366125E1
3.199170450E0,-2.520000041E-1,-1.905000091E0,1.088895035E1,1.105720439E1
3.201662295E0,-2.329500169E-1,-1.885950089E0,1.088895035E1,1.105352040E1
3.204154142E0,-1.950000077E-1,-1.885950089E0,1.083105087E1,1.099574899E1
3.206647064E0,-1.759500057E-1,-1.848000050E0,1.081200027E1,1.097020567E1
3.209139987E0,-1.369500011E-1,-1.867050052E0,1.023795033E1,1.040770186E1
3.211631678E0,-1.369500011E-1,-1.828950047E0,1.025700092E1,1.041968721E1
3.214123371E0,-9.900000691E-2,-1.828950047E0,1.021800041E1,1.038086662E1
3.216614641E0,-9.900000691E-2,-1.810050130E0,1.021800041E1,1.037755342E1
3.219105910E0,-6.105000153E-2,-1.810050130E0,1.016100025E1,1.032114018E1
3.221597592E0,-6.105000153E-2,-1.771050096E0,1.012305069E1,1.027698890E1
3.224089245E0,-2.295000106E-2,-1.771050096E0,1.004595089E1,1.020089577E1
3.226582168E0,-2.295000106E-2,-1.732950091E0,9.433050156E0,9.590937283E0
3.229075091E0,-3.000000026E-3,-1.714050055E0,9.414000511E0,9.568771197E0
3.231567283E0,-2.295000106E-2,-1.656000137E0,9.414000511E0,9.558570436E0
3.234059476E0,-3.000000026E-3,-1.636950135E0,9.376049995E0,9.517874146E0
3.236550827E0,-4.200000316E-2,-1.561050057E0,9.355950356E0,9.485380769E0
3.239042174E0,-2.295000106E-2,-1.540950060E0,9.298950195E0,9.425790605E0
3.241535444E0,-6.105000153E-2,-1.465050101E0,9.261000633E0,9.376365588E0
3.244028713E0,-6.105000153E-2,-1.426050067E0,8.686050415E0,8.802546092E0
3.246521480E0,-7.995000482E-2,-1.350000024E0,8.704950333E0,8.809372983E0
3.249014251E0,-7.995000482E-2,-1.312050104E0,8.667000771E0,8.766114866E0
3.251507477E0,-9.900000691E-2,-1.234950066E0,8.667000771E0,8.755101657E0
3.254000708E0,-9.900000691E-2,-1.197000027E0,8.608950615E0,8.692332297E0
3.256492514E0,-1.180500090E-1,-1.138950109E0,8.590050697E0,8.666032203E0
3.258984323E0,-9.900000691E-2,-1.101000071E0,8.513999939E0,8.585464292E0
3.261475284E0,-1.180500090E-1,-1.042950034E0,7.977000237E0,8.045757475E0
3.263966245E0,-9.900000691E-2,-1.024049997E0,7.957950592E0,8.024179523E0
3.266457630E0,-1.180500090E-1,-9.480000734E-1,7.957950592E0,8.015086872E0
3.268949015E0,-9.900000691E-2,-9.280500412E-1,7.920000553E0,7.974803235E0
3.271440514E0,-1.180500090E-1,-8.710500598E-1,7.920000553E0,7.968630546E0
3.273932015E0,-9.900000691E-2,-8.520000577E-1,7.882050514E0,7.928582812E0
3.276424673E0,-1.180500090E-1,-7.939500213E-1,7.882050514E0,7.922815961E0
3.278917328E0,-9.900000691E-2,-7.750500441E-1,7.843050480E0,7.881874422E0
3.281408865E0,-1.180500090E-1,-7.180500627E-1,7.843050480E0,7.876736160E0
3.283900404E0,-9.900000691E-2,-6.990000606E-1,7.804950237E0,7.836813784E0
3.286392251E0,-1.180500090E-1,-6.409500241E-1,7.804950237E0,7.832113440E0
3.288884096E0,-9.900000691E-2,-6.220500469E-1,7.767000198E0,7.792498915E0
3.291376047E0,-1.180500090E-1,-5.650500059E-1,7.767000198E0,7.788421496E0
3.293868010E0,-9.900000691E-2,-5.449500084E-1,7.728000164E0,7.747822794E0
3.296359586E0,-1.180500090E-1,-4.690500200E-1,7.728000164E0,7.743121480E0
3.298851163E0,-9.900000691E-2,-4.300500154E-1,7.690050602E0,7.702702271E0
3.301344241E0,-1.180500090E-1,-3.730500042E-1,7.690050602E0,7.699998725E0
3.303837318E0,-9.900000691E-2,-3.540000021E-1,7.671000481E0,7.679802431E0
3.306329187E0,-1.180500090E-1,-2.959500253E-1,7.690050602E0,7.696648653E0
3.308821034E0,-1.180500090E-1,-2.770500183E-1,7.671000481E0,7.676909593E0
3.311315959E0,-1.369500011E-1,-2.200500071E-1,7.690050602E0,7.694417169E0
3.313810880E0,-1.180500090E-1,-2.010000050E-1,7.671000481E0,7.674541366E0
3.316302840E0,-1.369500011E-1,-1.429500133E-1,7.690050602E0,7.692598278E0
3.318794803E0,-1.180500090E-1,-1.240500063E-1,7.671000481E0,7.672911611E0
3.321287401E0,-1.369500011E-1,-6.599999964E-2,7.690050602E0,7.691553131E0
3.323780016E0,-1.180500090E-1,-6.599999964E-2,7.671000481E0,7.672192658E0
3.326272476E0,-1.369500011E-1,-9.000000544E-3,7.690050602E0,7.691275223E0
3.328764939E0,-1.180500090E-1,-9.000000544E-3,7.671000481E0,7.671914049E0
3.331257092E0,-1.369500011E-1,2.805000171E-2,7.708950520E0,7.710217910E0
3.333749245E0,-1.180500090E-1,2.805000171E-2,7.708950520E0,7.709905364E0
3.336244829E0,-1.369500011E-1,6.705000252E-2,7.747050285E0,7.748550776E0
3.338740404E0,-1.180500090E-1,6.705000252E-2,7.747050285E0,7.748239776E0
3.341235134E0,-1.369500011E-1,1.050000042E-1,7.786050320E0,7.787962499E0
3.343729867E0,-1.180500090E-1,1.050000042E-1,7.786050320E0,7.787653073E0
3.346223866E0,-1.369500011E-1,1.429500133E-1,7.824000359E0,7.826504432E0
3.348717867E0,-1.180500090E-1,1.429500133E-1,7.824000359E0,7.826196530E0
3.351211439E0,-1.369500011E-1,2.010000050E-1,7.861950397E0,7.865711688E0
3.353705016E0,-1.180500090E-1,2.200500071E-1,7.861950397E0,7.865915196E0
3.356197746E0,-1.369500011E-1,2.959500253E-1,7.900950432E0,7.907677247E0
3.358690477E0,-1.180500090E-1,3.349500299E-1,7.920000553E0,7.927959138E0
3.361183900E0,-1.369500011E-1,3.919500113E-1,7.977000237E0,7.987797750E0
3.363677323E0,-1.180500090E-1,4.110000134E-1,7.996050358E0,8.007476390E0
3.366170062E0,-1.369500011E-1,4.879500270E-1,8.035050392E0,8.051017658E0
3.368662795E0,-1.180500090E-1,5.260500312E-1,8.053950310E0,8.071974977E0
3.371156526E0,-1.369500011E-1,5.839500427E-1,8.110950470E0,8.133097226E0
3.373650255E0,-1.180500090E-1,6.030000448E-1,8.131050110E0,8.154233302E0
3.376142370E0,-1.369500011E-1,6.600000262E-1,8.188050270E0,8.215748448E0
3.378634487E0,-1.180500090E-1,6.799500585E-1,8.206950188E0,8.235915205E0
3.381126487E0,-1.369500011E-1,7.369500399E-1,8.265000343E0,8.298920492E0
3.383618486E0,-1.369500011E-1,7.560000420E-1,8.284049988E0,8.319601888E0
3.386111564E0,-1.950000077E-1,8.140500188E-1,8.341050148E0,8.382948169E0
3.388604641E0,-1.950000077E-1,8.329500556E-1,8.359950066E0,8.403606125E0
3.391098486E0,-2.329500169E-1,8.899500370E-1,8.418000221E0,8.468116940E0
3.393592333E0,-2.329500169E-1,8.899500370E-1,8.437050819E0,8.487055043E0
3.396085412E0,-2.719500065E-1,9.289500713E-1,8.494050026E0,8.549022803E0
3.398578491E0,-2.719500065E-1,9.480000734E-1,8.513999939E0,8.570930866E0
3.401071607E0,-3.100500107E-1,1.004999995E0,8.571000099E0,8.635287992E0
3.403564722E0,-2.910000086E-1,1.004999995E0,8.590050697E0,8.653535519E0
3.406057913E0,-3.289500177E-1,1.042950034E0,8.647950172E0,8.716822533E0
3.408551106E0,-3.100500107E-1,1.063050032E0,8.667000771E0,8.737454362E0
3.411045260E0,-3.480000198E-1,1.101000071E0,8.723999977E0,8.800084134E0
3.413539413E0,-3.289500177E-1,1.101000071E0,8.743050575E0,8.818239202E0
3.416031912E0,-3.670500219E-1,1.138950109E0,8.800950050E0,8.881928555E0
3.418524413E0,-3.480000198E-1,1.138950109E0,8.820000648E0,8.900040607E0
3.421017760E0,-3.670500219E-1,1.158000112E0,8.878050804E0,8.960774300E0
3.423511107E0,-3.480000198E-1,1.138950109E0,8.896950722E0,8.976304558E0
3.426004067E0,-3.480000198E-1,1.158000112E0,8.953950882E0,9.035225767E0
3.428497030E0,-3.289500177E-1,1.138950109E0,8.992050171E0,9.069861175E0
3.430988375E0,-3.289500177E-1,1.158000112E0,9.069000244E0,9.148548399E0
3.433479722E0,-3.100500107E-1,1.138950109E0,9.088050842E0,9.164387949E0
3.435971876E0,-3.289500177E-1,1.138950109E0,9.164999962E0,9.241354866E0
3.438464029E0,-3.100500107E-1,1.101000071E0,9.184050560E0,9.255004962E0
3.440956361E0,-3.289500177E-1,1.101000071E0,9.261000633E0,9.332017038E0
3.443448708E0,-2.910000086E-1,1.063050032E0,9.280050278E0,9.345270972E0
3.445940245E0,-3.100500107E-1,1.063050032E0,9.337050438E0,9.402484632E0
3.448431784E0,-2.719500065E-1,1.024049997E0,9.355950356E0,9.415755002E0
3.450924362E0,-2.910000086E-1,1.024049997E0,9.414000511E0,9.474004698E0
3.453416939E0,-2.520000041E-1,9.859500527E-1,9.433050156E0,9.487783553E0
3.455910905E0,-2.719500065E-1,9.859500527E-1,9.471000671E0,9.526064666E0
3.458404904E0,-2.329500169E-1,9.480000734E-1,9.471000671E0,9.521177636E0
3.460897364E0,-2.140500098E-1,9.480000734E-1,9.490950584E0,9.540579885E0
3.463389827E0,-1.759500057E-1,9.090000391E-1,9.471000671E0,9.516149074E0
3.465883829E0,-1.570500135E-1,9.090000391E-1,9.490950584E0,9.535674532E0
3.468377828E0,-1.180500090E-1,8.710500598E-1,9.471000671E0,9.511704249E0
3.470870764E0,-1.180500090E-1,8.710500598E-1,9.490950584E0,9.531568969E0
3.473363689E0,-9.900000691E-2,8.329500556E-1,9.471000671E0,9.508073439E0
3.475857574E0,-9.900000691E-2,8.329500556E-1,9.490950584E0,9.527945728E0
3.478351457E0,-7.995000482E-2,7.939500213E-1,9.471000671E0,9.504556926E0
3.480844033E0,-7.995000482E-2,7.939500213E-1,9.490950584E0,9.524436552E0
3.483336612E0,-6.105000153E-2,7.560000420E-1,9.471000671E0,9.501321849E0
3.485829848E0,-6.105000153E-2,7.560000420E-1,9.490950584E0,9.521208230E0
3.488323079E0,-4.200000316E-2,7.369500399E-1,9.451950073E0,9.480728851E0
3.490815885E0,-6.105000153E-2,7.560000420E-1,9.451950073E0,9.482332168E0
3.493308694E0,-4.200000316E-2,7.369500399E-1,9.414000511E0,9.442894947E0
3.495801309E0,-6.105000153E-2,7.560000420E-1,9.414000511E0,9.444504687E0
3.498293924E0,-4.200000316E-2,7.369500399E-1,9.376049995E0,9.405061025E0
3.500788709E0,-6.105000153E-2,7.560000420E-1,9.376049995E0,9.406677239E0
3.503283478E0,-4.200000316E-2,7.369500399E-1,9.337050438E0,9.366182266E0
3.505777630E0,-6.105000153E-2,7.560000420E-1,9.337050438E0,9.367805188E0
3.508271785E0,-4.200000316E-2,7.369500399E-1,9.298950195E0,9.328201011E0
3.510766978E0,-6.105000153E-2,7.560000420E-1,9.318000793E0,9.348818212E0
3.513262169E0,-4.200000316E-2,7.369500399E-1,9.298950195E0,9.328201011E0
3.515754013E0,-6.105000153E-2,7.560000420E-1,9.298950195E0,9.329830540E0
3.518245862E0,-6.105000153E-2,7.369500399E-1,9.261000633E0,9.290476586E0
3.520738016E0,-7.995000482E-2,7.560000420E-1,9.261000633E0,9.292150494E0
3.523230169E0,-6.105000153E-2,7.369500399E-1,9.222000122E0,9.251600333E0
3.525723438E0,-7.995000482E-2,7.560000420E-1,9.222000122E0,9.253281273E0
3.528216707E0,-6.105000153E-2,7.369500399E-1,9.202950478E0,9.232611763E0
3.530708678E0,-7.995000482E-2,7.560000420E-1,9.202950478E0,9.234296159E0
3.533200641E0,-6.105000153E-2,7.369500399E-1,9.184050560E0,9.213772688E0
3.535693295E0,-7.995000482E-2,7.560000420E-1,9.202950478E0,9.234296159E0
3.538185948E0,-6.105000153E-2,7.369500399E-1,9.184050560E0,9.213772688E0
3.540679140E0,-7.995000482E-2,7.560000420E-1,9.202950478E0,9.234296159E0
3.543172333E0,-6.105000153E-2,7.369500399E-1,9.184050560E0,9.213772688E0
3.545664343E0,-7.995000482E-2,7.560000420E-1,9.202950478E0,9.234296159E0
3.548156382E0,-6.105000153E-2,7.369500399E-1,9.184050560E0,9.213772688E0
3.550646189E0,-7.995000482E-2,7.560000420E-1,9.202950478E0,9.234296159E0
3.553135998E0,-6.105000153E-2,7.369500399E-1,9.184050560E0,9.213772688E0
3.555629538E0,-7.995000482E-2,7.560000420E-1,9.202950478E0,9.234296159E0
3.558123075E0,-6.105000153E-2,7.369500399E-1,9.184050560E0,9.213772688E0
3.560615542E0,-7.995000482E-2,7.560000420E-1,9.202950478E0,9.234296159E0
3.563108005E0,-6.105000153E-2,7.369500399E-1,9.184050560E0,9.213772688E0
3.565602007E0,-6.105000153E-2,7.560000420E-1,9.202950478E0,9.234151865E0
3.568096006E0,-4.200000316E-2,7.369500399E-1,9.184050560E0,9.213666157E0
3.570589581E0,-4.200000316E-2,7.560000420E-1,9.202950478E0,9.234045568E0
3.573083160E0,-2.295000106E-2,7.369500399E-1,9.184050560E0,9.213599012E0
3.575578887E0,-2.295000106E-2,7.560000420E-1,9.202950478E0,9.233978572E0
3.578074578E0,1.500000060E-2,7.369500399E-1,9.184050560E0,9.213582639E0
3.580567307E0,-3.000000026E-3,7.369500399E-1,9.202950478E0,9.232410403E0
3.583060040E0,3.405000269E-2,6.990000606E-1,9.184050560E0,9.210675609E0
3.585553925E0,1.500000060E-2,7.180500627E-1,9.202950478E0,9.230932693E0
3.588047808E0,5.295000225E-2,6.799500585E-1,9.184050560E0,9.209338764E0
3.590541198E0,3.405000269E-2,6.990000606E-1,9.202950478E0,9.229521005E0
3.593034583E0,5.295000225E-2,6.799500585E-1,9.184050560E0,9.209338764E0
3.595527622E0,3.405000269E-2,6.990000606E-1,9.202950478E0,9.229521005E0
3.598020661E0,5.295000225E-2,6.799500585E-1,9.184050560E0,9.209338764E0
3.600513891E0,3.405000269E-2,6.799500585E-1,9.202950478E0,9.228097798E0
3.603007122E0,7.200000435E-2,6.600000262E-1,9.184050560E0,9.208016547E0
3.605500798E0,5.295000225E-2,6.600000262E-1,9.202950478E0,9.226738385E0
3.607994491E0,7.200000435E-2,6.409500241E-1,9.184050560E0,9.206670713E0
3.610488068E0,5.295000225E-2,6.600000262E-1,9.202950478E0,9.226738385E0
3.612981645E0,9.105000645E-2,6.409500241E-1,9.184050560E0,9.206839399E0
3.615475453E0,7.200000435E-2,6.600000262E-1,9.202950478E0,9.226867374E0
3.617969260E0,9.105000645E-2,6.409500241E-1,9.184050560E0,9.206839399E0
3.620461903E0,7.200000435E-2,6.600000262E-1,9.202950478E0,9.226867374E0
3.622954558E0,9.105000645E-2,6.409500241E-1,9.184050560E0,9.206839399E0
3.625447636E0,7.200000435E-2,6.600000262E-1,9.202950478E0,9.226867374E0
3.627940713E0,1.110000089E-1,6.409500241E-1,9.184050560E0,9.207058305E0
3.630433635E0,9.105000645E-2,6.600000262E-1,9.202950478E0,9.227035690E0
3.632926558E0,1.110000089E-1,6.409500241E-1,9.184050560E0,9.207058305E0
3.635417890E0,9.105000645E-2,6.600000262E-1,9.202950478E0,9.227035690E0
3.637909237E0,1.300500035E-1,6.409500241E-1,9.184050560E0,9.207307675E0
3.640401429E0,1.110000089E-1,6.600000262E-1,9.184050560E0,9.208404081E0
3.642893622E0,1.300500035E-1,6.409500241E-1,9.145950317E0,9.169304071E0
3.645385736E0,1.110000089E-1,6.600000262E-1,9.145950317E0,9.170405021E0
3.647877851E0,1.300500035E-1,6.220500469E-1,9.106950760E0,9.129096966E0
3.650373282E0,1.110000089E-1,6.220500469E-1,9.106950760E0,9.128845459E0
3.652868703E0,1.300500035E-1,6.030000448E-1,9.088050842E0,9.108962080E0
3.655363741E0,1.110000089E-1,6.220500469E-1,9.106950760E0,9.128845459E0
3.657858780E0,1.300500035E-1,6.030000448E-1,9.088050842E0,9.108962080E0
3.660352934E0,1.110000089E-1,6.220500469E-1,9.106950760E0,9.128845459E0
3.662847087E0,1.300500035E-1,6.030000448E-1,9.088050842E0,9.108962080E0
3.665339245E0,1.110000089E-1,6.220500469E-1,9.106950760E0,9.128845459E0
3.667831400E0,1.300500035E-1,6.030000448E-1,9.088050842E0,9.108962080E0
3.670325093E0,1.110000089E-1,6.220500469E-1,9.106950760E0,9.128845459E0
3.672818784E0,1.300500035E-1,6.030000448E-1,9.088050842E0,9.108962080E0
3.675312976E0,1.110000089E-1,6.220500469E-1,9.106950760E0,9.128845459E0
3.677807169E0,1.300500035E-1,6.030000448E-1,9.088050842E0,9.108962080E0
3.680299509E0,1.110000089E-1,6.220500469E-1,9.106950760E0,9.128845459E0
3.682791818E0,1.300500035E-1,6.030000448E-1,9.088050842E0,9.108962080E0
3.685283972E0,1.110000089E-1,6.220500469E-1,9.106950760E0,9.128845459E0
3.687776125E0,1.300500035E-1,6.030000448E-1,9.106950760E0,9.127818699E0
3.690271204E0,1.110000089E-1,6.220500469E-1,9.145950317E0,9.167751877E0
3.692766279E0,1.300500035E-1,6.030000448E-1,9.145950317E0,9.166729475E0
3.695260446E0,1.110000089E-1,6.220500469E-1,9.184050560E0,9.205761889E0
3.697754601E0,1.300500035E-1,6.030000448E-1,9.184050560E0,9.204743709E0
3.700248140E0,1.110000089E-1,6.220500469E-1,9.222000122E0,9.243622316E0
3.702741679E0,1.300500035E-1,6.030000448E-1,9.222000122E0,9.242608307E0
3.705235068E0,1.110000089E-1,6.220500469E-1,9.261000633E0,9.282531982E0
3.707728453E0,1.300500035E-1,6.030000448E-1,9.261000633E0,9.281522224E0
3.710222260E0,1.110000089E-1,6.220500469E-1,9.298950195E0,9.320393876E0
3.712716067E0,1.300500035E-1,6.030000448E-1,9.298950195E0,9.319388220E0
3.715210559E0,1.110000089E-1,6.220500469E-1,9.318000793E0,9.339400733E0
3.717705022E0,1.300500035E-1,6.030000448E-1,9.318000793E0,9.338397124E0
3.720198096E0,1.110000089E-1,6.220500469E-1,9.355950356E0,9.377263690E0
3.722691175E0,1.300500035E-1,6.030000448E-1,9.355950356E0,9.376264134E0
3.725185368E0,1.110000089E-1,6.220500469E-1,9.394950867E0,9.416175925E0
3.727679559E0,1.300500035E-1,6.030000448E-1,9.376049995E0,9.396320321E0
3.730174603E0,1.110000089E-1,6.220500469E-1,9.394950867E0,9.416175925E0
3.732669642E0,1.300500035E-1,6.030000448E-1,9.376049995E0,9.396320321E0
3.735162717E0,1.110000089E-1,6.220500469E-1,9.394950867E0,9.416175925E0
3.737655796E0,1.300500035E-1,6.030000448E-1,9.376049995E0,9.396320321E0
3.740149680E0,1.110000089E-1,6.220500469E-1,9.394950867E0,9.416175925E0
3.742643565E0,1.300500035E-1,6.030000448E-1,9.376049995E0,9.396320321E0
3.745138026E0,1.110000089E-1,6.220500469E-1,9.394950867E0,9.416175925E0
3.747632487E0,1.300500035E-1,6.030000448E-1,9.376049995E0,9.396320321E0
3.750126602E0,1.110000089E-1,6.220500469E-1,9.394950867E0,9.416175925E0
3.752620719E0,1.300500035E-1,6.030000448E-1,9.376049995E0,9.396320321E0
3.755112564E0,1.110000089E-1,6.220500469E-1,9.394950867E0,9.416175925E0
3.757604411E0,1.300500035E-1,6.030000448E-1,9.376049995E0,9.396320321E0
3.760099201E0,1.110000089E-1,6.030000448E-1,9.394950867E0,9.414936635E0
3.762593968E0,1.300500035E-1,5.650500059E-1,9.376049995E0,9.393961253E0
3.765086620E0,1.110000089E-1,5.839500427E-1,9.394950867E0,9.413735733E0
3.767579275E0,1.300500035E-1,5.449500084E-1,9.376049995E0,9.392773660E0
3.770075085E0,1.110000089E-1,5.650500059E-1,9.394950867E0,9.412582233E0
3.772570892E0,1.300500035E-1,5.449500084E-1,9.376049995E0,9.392773660E0
3.775066742E0,1.110000089E-1,5.650500059E-1,9.394950867E0,9.412582233E0
3.777562627E0,1.300500035E-1,5.449500084E-1,9.376049995E0,9.392773660E0
3.780057086E0,1.110000089E-1,5.650500059E-1,9.394950867E0,9.412582233E0
3.782551549E0,1.300500035E-1,5.449500084E-1,9.355950356E0,9.372709884E0
3.785046281E0,1.110000089E-1,5.650500059E-1,9.376049995E0,9.393716838E0
3.787541012E0,1.300500035E-1,5.449500084E-1,9.355950356E0,9.372709884E0
3.790034395E0,1.110000089E-1,5.650500059E-1,9.355950356E0,9.373655080E0
3.792527780E0,1.489500105E-1,5.449500084E-1,9.337050438E0,9.354125694E0
3.795022088E0,1.489500105E-1,5.650500059E-1,9.355950356E0,9.374181280E0
3.797516395E0,1.680000126E-1,5.449500084E-1,9.318000793E0,9.335434286E0
3.800007624E0,1.680000126E-1,5.650500059E-1,9.337050438E0,9.355640886E0
3.802498857E0,2.059500068E-1,5.449500084E-1,9.298950195E0,9.317180939E0
3.804992528E0,2.059500068E-1,5.650500059E-1,9.298950195E0,9.318378166E0
3.807486219E0,2.260500044E-1,5.449500084E-1,9.261000633E0,9.279773804E0
3.809979948E0,2.260500044E-1,5.650500059E-1,9.280050278E0,9.299984584E0
3.812473679E0,2.449500114E-1,5.449500084E-1,9.261000633E0,9.280253431E0
3.814967833E0,2.449500114E-1,5.650500059E-1,9.280050278E0,9.300463170E0
3.817461988E0,2.639999986E-1,5.449500084E-1,9.261000633E0,9.280775789E0
3.819956756E0,2.449500114E-1,5.650500059E-1,9.280050278E0,9.300463170E0
3.822451525E0,2.639999986E-1,5.449500084E-1,9.241950035E0,9.261765866E0
3.824946294E0,2.449500114E-1,5.449500084E-1,9.261000633E0,9.280253431E0
3.827441065E0,2.639999986E-1,5.070000291E-1,9.241950035E0,9.259610439E0
3.829935525E0,2.449500114E-1,5.070000291E-1,9.261000633E0,9.278102299E0
3.832429988E0,2.449500114E-1,4.690500200E-1,9.241950035E0,9.257086414E0
3.834924757E0,2.260500044E-1,4.879500270E-1,9.261000633E0,9.276601024E0
3.837419526E0,2.260500044E-1,4.690500200E-1,9.241950035E0,9.256605586E0
3.839914101E0,2.059500068E-1,4.879500270E-1,9.261000633E0,9.276132996E0
3.842408680E0,2.059500068E-1,4.690500200E-1,9.241950035E0,9.256136547E0
3.844903950E0,1.489500105E-1,4.879500270E-1,9.261000633E0,9.275042537E0
3.847399219E0,1.489500105E-1,4.690500200E-1,9.241950035E0,9.255043732E0
3.849893515E0,9.105000645E-2,4.879500270E-1,9.261000633E0,9.274293400E0
3.852387786E0,9.105000645E-2,4.690500200E-1,9.241950035E0,9.254292975E0
3.854884133E0,5.295000225E-2,4.879500270E-1,9.280050278E0,9.293020612E0
3.857380478E0,5.295000225E-2,4.690500200E-1,9.280050278E0,9.292047394E0
3.859874322E0,1.500000060E-2,4.879500270E-1,9.318000793E0,9.330780193E0
3.862368171E0,3.405000269E-2,4.690500200E-1,9.298950195E0,9.310834660E0
3.864862945E0,-3.000000026E-3,4.879500270E-1,9.318000793E0,9.330768619E0
3.867357714E0,1.500000060E-2,4.500000179E-1,9.318000793E0,9.328872590E0
3.869852790E0,-2.295000106E-2,4.500000179E-1,9.355950356E0,9.366794210E0
3.872347867E0,-3.000000026E-3,4.110000134E-1,9.337050438E0,9.346092279E0
3.874840750E0,-4.200000316E-2,4.110000134E-1,9.355950356E0,9.365067649E0
3.877333637E0,-2.295000106E-2,3.730500042E-1,9.337050438E0,9.344528019E0
3.879828724E0,-6.105000153E-2,3.919500113E-1,9.355950356E0,9.364355769E0
3.882323799E0,-4.200000316E-2,3.730500042E-1,9.355950356E0,9.363478913E0
3.884817952E0,-6.105000153E-2,3.919500113E-1,9.376049995E0,9.384437406E0
3.887312107E0,-4.200000316E-2,3.730500042E-1,9.355950356E0,9.363478913E0
3.889805069E0,-6.105000153E-2,3.919500113E-1,9.376049995E0,9.384437406E0
3.892298030E0,-4.200000316E-2,3.730500042E-1,9.355950356E0,9.363478913E0
3.894791391E0,-4.200000316E-2,3.919500113E-1,9.376049995E0,9.384332812E0
3.897284776E0,-2.295000106E-2,3.730500042E-1,9.355950356E0,9.363412843E0
3.899780584E0,-2.295000106E-2,3.919500113E-1,9.376049995E0,9.384266888E0
3.902276391E0,1.500000060E-2,3.730500042E-1,9.355950356E0,9.363396732E0
3.904770890E0,-3.000000026E-3,3.919500113E-1,9.376049995E0,9.384239305E0
3.907265391E0,1.500000060E-2,3.730500042E-1,9.355950356E0,9.363396732E0
3.909759170E0,-3.000000026E-3,3.919500113E-1,9.376049995E0,9.384239305E0
3.912252977E0,1.500000060E-2,3.730500042E-1,9.355950356E0,9.363396732E0
3.914746054E0,-3.000000026E-3,3.919500113E-1,9.376049995E0,9.384239305E0
3.917239131E0,1.500000060E-2,3.730500042E-1,9.355950356E0,9.363396732E0
3.919730361E0,-3.000000026E-3,3.919500113E-1,9.376049995E0,9.384239305E0
3.922221592E0,1.500000060E-2,3.730500042E-1,9.376049995E0,9.383480422E0
3.924716094E0,-3.000000026E-3,3.919500113E-1,9.394950867E0,9.403123715E0
3.927210593E0,1.500000060E-2,3.730500042E-1,9.394950867E0,9.402366356E0
3.929703629E0,-3.000000026E-3,3.919500113E-1,9.433050156E0,9.441190023E0
3.932196670E0,1.500000060E-2,3.730500042E-1,9.414000511E0,9.421401007E0
3.934690555E0,-3.000000026E-3,3.919500113E-1,9.433050156E0,9.441190023E0
3.937184440E0,1.500000060E-2,3.730500042E-1,9.414000511E0,9.421401007E0
3.939677958E0,-3.000000026E-3,3.919500113E-1,9.433050156E0,9.441190023E0
3.942171497E0,1.500000060E-2,3.730500042E-1,9.414000511E0,9.421401007E0
3.944664074E0,-3.000000026E-3,3.919500113E-1,9.433050156E0,9.441190023E0
3.947156651E0,1.500000060E-2,3.730500042E-1,9.414000511E0,9.421401007E0
3.949649459E0,-3.000000026E-3,3.919500113E-1,9.433050156E0,9.441190023E0
3.952142266E0,1.500000060E-2,3.730500042E-1,9.414000511E0,9.421401007E0
3.954635175E0,-3.000000026E-3,3.919500113E-1,9.433050156E0,9.441190023E0
3.957128098E0,1.500000060E-2,3.730500042E-1,9.414000511E0,9.421401007E0
3.959621791E0,-3.000000026E-3,3.919500113E-1,9.433050156E0,9.441190023E0
3.962115484E0,1.500000060E-2,3.730500042E-1,9.414000511E0,9.421401007E0
3.964609021E0,-3.000000026E-3,3.919500113E-1,9.433050156E0,9.441190023E0
3.967102560E0,1.500000060E-2,3.730500042E-1,9.414000511E0,9.421401007E0
3.969596402E0,-3.000000026E-3,3.919500113E-1,9.433050156E0,9.441190023E0
3.972090247E0,1.500000060E-2,3.730500042E-1,9.414000511E0,9.421401007E0
3.974582977E0,-3.000000026E-3,4.110000134E-1,9.433050156E0,9.442000066E0
3.977075708E0,1.500000060E-2,3.919500113E-1,9.414000511E0,9.422168298E0
3.979568055E0,-3.000000026E-3,4.110000134E-1,9.433050156E0,9.442000066E0
3.982060402E0,1.500000060E-2,3.919500113E-1,9.414000511E0,9.422168298E0
3.984554690E0,-3.000000026E-3,4.110000134E-1,9.433050156E0,9.442000066E0
3.987048997E0,1.500000060E-2,3.919500113E-1,9.414000511E0,9.422168298E0
3.989541918E0,-3.000000026E-3,4.110000134E-1,9.433050156E0,9.442000066E0
3.992034843E0,1.500000060E-2,3.919500113E-1,9.414000511E0,9.422168298E0
3.994526842E0,-3.000000026E-3,4.110000134E-1,9.433050156E0,9.442000066E0
3.997018843E0,1.500000060E-2,3.919500113E-1,9.414000511E0,9.422168298E0
3.999511272E0,-3.000000026E-3,4.110000134E-1,9.433050156E0,9.442000066E0
4.002003733E0,1.500000060E-2,3.919500113E-1,9.414000511E0,9.422168298E0
4.004495385E0,-3.000000026E-3,4.110000134E-1,9.433050156E0,9.442000066E0
4.006987040E0,1.500000060E-2,3.919500113E-1,9.414000511E0,9.422168298E0
4.009479811E0,-3.000000026E-3,4.110000134E-1,9.433050156E0,9.442000066E0
4.011972580E0,1.500000060E-2,3.919500113E-1,9.414000511E0,9.422168298E0
4.014464131E0,-3.000000026E-3,4.110000134E-1,9.433050156E0,9.442000066E0
4.016955670E0,1.500000060E-2,3.919500113E-1,9.414000511E0,9.422168298E0
4.019449980E0,-3.000000026E-3,4.110000134E-1,9.433050156E0,9.442000066E0
4.021944285E0,1.500000060E-2,3.919500113E-1,9.414000511E0,9.422168298E0
4.024436784E0,-3.000000026E-3,3.919500113E-1,9.433050156E0,9.441190023E0
4.026929285E0,1.500000060E-2,3.730500042E-1,9.414000511E0,9.421401007E0
4.029422786E0,-3.000000026E-3,3.919500113E-1,9.433050156E0,9.441190023E0
4.031916285E0,3.405000269E-2,3.730500042E-1,9.414000511E0,9.421450596E0
4.034410901E0,1.500000060E-2,3.919500113E-1,9.433050156E0,9.441201462E0
4.036905516E0,5.295000225E-2,3.730500042E-1,9.414000511E0,9.421537859E0
4.039398438E0,3.405000269E-2,3.919500113E-1,9.433050156E0,9.441250947E0
4.041891363E0,7.200000435E-2,3.730500042E-1,9.414000511E0,9.421664181E0
4.044384954E0,9.105000645E-2,3.919500113E-1,9.433050156E0,9.441628575E0
4.046878531E0,1.300500035E-1,3.730500042E-1,9.414000511E0,9.422286609E0
4.049371260E0,1.489500105E-1,3.919500113E-1,9.433050156E0,9.442364437E0
4.051863991E0,1.680000126E-1,3.730500042E-1,9.414000511E0,9.422886815E0
4.054358339E0,1.680000126E-1,3.730500042E-1,9.433050156E0,9.441918531E0
4.056852684E0,2.059500068E-1,3.540000021E-1,9.394950867E0,9.403873308E0
4.059346814E0,2.059500068E-1,3.540000021E-1,9.414000511E0,9.422904915E0
4.061840929E0,2.260500044E-1,3.160500228E-1,9.376049995E0,9.384098238E0
4.064334507E0,2.260500044E-1,3.349500299E-1,9.376049995E0,9.384753787E0
4.066828084E0,2.449500114E-1,3.160500228E-1,9.337050438E0,9.345608541E0
4.069322054E0,2.449500114E-1,3.349500299E-1,9.337050438E0,9.346266790E0
4.071816015E0,2.830500007E-1,3.160500228E-1,9.318000793E0,9.327654781E0
4.074310515E0,2.830500007E-1,3.349500299E-1,9.318000793E0,9.328314296E0
4.076805016E0,3.019500077E-1,3.160500228E-1,9.298950195E0,9.309217806E0
4.079299592E0,2.830500007E-1,3.349500299E-1,9.318000793E0,9.328314296E0
4.081794169E0,3.019500077E-1,3.349500299E-1,9.298950195E0,9.309878628E0
4.084287380E0,2.830500007E-1,3.540000021E-1,9.318000793E0,9.329017745E0
4.086780613E0,3.019500077E-1,3.349500299E-1,9.298950195E0,9.309878628E0
4.089272497E0,2.830500007E-1,3.540000021E-1,9.318000793E0,9.329017745E0
4.091764382E0,3.019500077E-1,3.349500299E-1,9.298950195E0,9.309878628E0
4.094258075E0,2.830500007E-1,3.540000021E-1,9.318000793E0,9.329017745E0
4.096751766E0,3.019500077E-1,3.349500299E-1,9.298950195E0,9.309878628E0
4.099246685E0,2.830500007E-1,3.540000021E-1,9.318000793E0,9.329017745E0
4.101741608E0,3.019500077E-1,3.349500299E-1,9.298950195E0,9.309878628E0
4.104235259E0,2.830500007E-1,3.540000021E-1,9.318000793E0,9.329017745E0
4.106728914E0,3.019500077E-1,3.349500299E-1,9.298950195E0,9.309878628E0
4.109223069E0,2.639999986E-1,3.540000021E-1,9.318000793E0,9.328459186E0
4.111717222E0,2.830500007E-1,3.349500299E-1,9.298950195E0,9.309284804E0
4.114212752E0,2.449500114E-1,3.540000021E-1,9.318000793E0,9.327939499E0
4.116708291E0,2.639999986E-1,3.349500299E-1,9.298950195E0,9.308725061E0
4.119201250E0,2.449500114E-1,3.540000021E-1,9.318000793E0,9.327939499E0
4.121694213E0,2.639999986E-1,3.349500299E-1,9.298950195E0,9.308725061E0
4.124187714E0,2.449500114E-1,3.540000021E-1,9.318000793E0,9.327939499E0
4.126681213E0,2.639999986E-1,3.349500299E-1,9.298950195E0,9.308725061E0
4.129176483E0,2.449500114E-1,3.540000021E-1,9.318000793E0,9.327939499E0
4.131671752E0,2.639999986E-1,3.160500228E-1,9.298950195E0,9.308064157E0
4.134165712E0,2.449500114E-1,3.160500228E-1,9.318000793E0,9.326576377E0
4.136659675E0,2.639999986E-1,2.959500253E-1,9.298950195E0,9.307403352E0
4.139154176E0,2.449500114E-1,3.160500228E-1,9.318000793E0,9.326576377E0
4.141648675E0,2.639999986E-1,2.959500253E-1,9.298950195E0,9.307403352E0
4.144143410E0,2.449500114E-1,3.160500228E-1,9.318000793E0,9.326576377E0
4.146638141E0,2.639999986E-1,2.959500253E-1,9.298950195E0,9.307403352E0
4.149130025E0,2.449500114E-1,3.160500228E-1,9.318000793E0,9.326576377E0
4.151621912E0,2.639999986E-1,2.959500253E-1,9.298950195E0,9.307403352E0
4.154116643E0,2.449500114E-1,3.160500228E-1,9.318000793E0,9.326576377E0
4.156611372E0,2.639999986E-1,2.959500253E-1,9.298950195E0,9.307403352E0
4.159106492E0,2.449500114E-1,3.160500228E-1,9.318000793E0,9.326576377E0
4.161601607E0,2.639999986E-1,2.959500253E-1,9.298950195E0,9.307403352E0
4.164096799E0,2.449500114E-1,3.160500228E-1,9.318000793E0,9.326576377E0
4.166591992E0,2.639999986E-1,2.959500253E-1,9.298950195E0,9.307403352E0
4.169085722E0,2.449500114E-1,3.160500228E-1,9.318000793E0,9.326576377E0
4.171579453E0,2.639999986E-1,2.959500253E-1,9.298950195E0,9.307403352E0
4.174074224E0,2.449500114E-1,3.349500299E-1,9.318000793E0,9.327235969E0
